prolific_id,RT,expected,QUD,id,trial_name,trial_number,response,question,pe_task.smooth
6001ec0ca3b1a3187ac01f0c,255330,y,Please indicate how likely you think the shown events will occur. Click on RUN to see!,uncertain3,animation_slider,1,0.23,ry,0.22772286050352278
6001ec0ca3b1a3187ac01f0c,255330,y,Please indicate how likely you think the shown events will occur. Click on RUN to see!,uncertain3,animation_slider,1,0.18,r,0.1782181060669067
6001ec0ca3b1a3187ac01f0c,255330,y,Please indicate how likely you think the shown events will occur. Click on RUN to see!,uncertain3,animation_slider,1,0.28,y,0.27722761494013887
6001ec0ca3b1a3187ac01f0c,255330,y,Please indicate how likely you think the shown events will occur. Click on RUN to see!,uncertain3,animation_slider,1,0.32,none,0.31683141848943175
6001ec0ca3b1a3187ac01f0c,23810,r,Please indicate how likely you think the shown events will occur. Click on RUN to see!,uncertain1,animation_slider,2,0.18,ry,0.18000027999888002
6001ec0ca3b1a3187ac01f0c,23810,r,Please indicate how likely you think the shown events will occur. Click on RUN to see!,uncertain1,animation_slider,2,0.29,r,0.28999984000064
6001ec0ca3b1a3187ac01f0c,23810,r,Please indicate how likely you think the shown events will occur. Click on RUN to see!,uncertain1,animation_slider,2,0.22,y,0.22000011999952002
6001ec0ca3b1a3187ac01f0c,23810,r,Please indicate how likely you think the shown events will occur. Click on RUN to see!,uncertain1,animation_slider,2,0.31,none,0.30999976000096
6001ec0ca3b1a3187ac01f0c,39192,y,Please indicate how likely you think the shown events will occur. Click on RUN to see!,distance1,animation_slider,3,0,ry,9.99996000016e-7
6001ec0ca3b1a3187ac01f0c,39192,y,Please indicate how likely you think the shown events will occur. Click on RUN to see!,distance1,animation_slider,3,0.25,r,0.25
6001ec0ca3b1a3187ac01f0c,39192,y,Please indicate how likely you think the shown events will occur. Click on RUN to see!,distance1,animation_slider,3,0.35,y,0.34999960000159996
6001ec0ca3b1a3187ac01f0c,39192,y,Please indicate how likely you think the shown events will occur. Click on RUN to see!,distance1,animation_slider,3,0.4,none,0.39999940000240003
6001ec0ca3b1a3187ac01f0c,30030,r,Please indicate how likely you think the shown events will occur. Click on RUN to see!,distance0,animation_slider,4,0.2,ry,0.20202039587718842
6001ec0ca3b1a3187ac01f0c,30030,r,Please indicate how likely you think the shown events will occur. Click on RUN to see!,distance0,animation_slider,4,0.29,r,0.29292911947830513
6001ec0ca3b1a3187ac01f0c,30030,r,Please indicate how likely you think the shown events will occur. Click on RUN to see!,distance0,animation_slider,4,0.21,y,0.21212136516620136
6001ec0ca3b1a3187ac01f0c,30030,r,Please indicate how likely you think the shown events will occur. Click on RUN to see!,distance0,animation_slider,4,0.29,none,0.29292911947830513
6001ec0ca3b1a3187ac01f0c,27084,none,Please indicate how likely you think the shown events will occur. Click on RUN to see!,ac3,animation_slider,5,0.22,ry,0.22000011999952002
6001ec0ca3b1a3187ac01f0c,27084,none,Please indicate how likely you think the shown events will occur. Click on RUN to see!,ac3,animation_slider,5,0.21,r,0.21000015999936003
6001ec0ca3b1a3187ac01f0c,27084,none,Please indicate how likely you think the shown events will occur. Click on RUN to see!,ac3,animation_slider,5,0.27,y,0.26999992000032
6001ec0ca3b1a3187ac01f0c,27084,none,Please indicate how likely you think the shown events will occur. Click on RUN to see!,ac3,animation_slider,5,0.3,none,0.2999998000008
6001ec0ca3b1a3187ac01f0c,38089,ry,Please indicate how likely you think the shown events will occur. Click on RUN to see!,ind1,animation_slider,6,0.11,ry,0.1111116722760716
6001ec0ca3b1a3187ac01f0c,38089,ry,Please indicate how likely you think the shown events will occur. Click on RUN to see!,ind1,animation_slider,6,0.67,r,0.6767659524607982
6001ec0ca3b1a3187ac01f0c,38089,ry,Please indicate how likely you think the shown events will occur. Click on RUN to see!,ind1,animation_slider,6,0.21,y,0.2121213651662013
6001ec0ca3b1a3187ac01f0c,38089,ry,Please indicate how likely you think the shown events will occur. Click on RUN to see!,ind1,animation_slider,6,0,none,1.0100969289012972e-6
6001ec0ca3b1a3187ac01f0c,25657,none,Please indicate how likely you think the shown events will occur. Click on RUN to see!,ssw1,animation_slider,7,0.21,ry,0.21000015999936003
6001ec0ca3b1a3187ac01f0c,25657,none,Please indicate how likely you think the shown events will occur. Click on RUN to see!,ssw1,animation_slider,7,0.23,r,0.23000007999968003
6001ec0ca3b1a3187ac01f0c,25657,none,Please indicate how likely you think the shown events will occur. Click on RUN to see!,ssw1,animation_slider,7,0.18,y,0.18000027999888002
6001ec0ca3b1a3187ac01f0c,25657,none,Please indicate how likely you think the shown events will occur. Click on RUN to see!,ssw1,animation_slider,7,0.38,none,0.37999948000208
6001ec0ca3b1a3187ac01f0c,28332,ry,Please indicate how likely you think the shown events will occur. Click on RUN to see!,ssw0,animation_slider,8,0.31,ry,0.30999976000096
6001ec0ca3b1a3187ac01f0c,28332,ry,Please indicate how likely you think the shown events will occur. Click on RUN to see!,ssw0,animation_slider,8,0.18,r,0.18000027999888002
6001ec0ca3b1a3187ac01f0c,28332,ry,Please indicate how likely you think the shown events will occur. Click on RUN to see!,ssw0,animation_slider,8,0.46,y,0.45999916000336005
6001ec0ca3b1a3187ac01f0c,28332,ry,Please indicate how likely you think the shown events will occur. Click on RUN to see!,ssw0,animation_slider,8,0.05,none,0.05000079999680002
6001ec0ca3b1a3187ac01f0c,20661,y,Please indicate how likely you think the shown events will occur. Click on RUN to see!,uncertain0,animation_slider,9,0.08,ry,0.0808087644090327
6001ec0ca3b1a3187ac01f0c,20661,y,Please indicate how likely you think the shown events will occur. Click on RUN to see!,uncertain0,animation_slider,9,0.49,r,0.49494850525856465
6001ec0ca3b1a3187ac01f0c,20661,y,Please indicate how likely you think the shown events will occur. Click on RUN to see!,uncertain0,animation_slider,9,0.11,y,0.11111167227607163
6001ec0ca3b1a3187ac01f0c,20661,y,Please indicate how likely you think the shown events will occur. Click on RUN to see!,uncertain0,animation_slider,9,0.31,none,0.31313105805633107
6001ec0ca3b1a3187ac01f0c,20465,r,Please indicate how likely you think the shown events will occur. Click on RUN to see!,ind0,animation_slider,10,0.32,ry,0.31683141848943175
6001ec0ca3b1a3187ac01f0c,20465,r,Please indicate how likely you think the shown events will occur. Click on RUN to see!,ind0,animation_slider,10,0.22,r,0.21782190961619957
6001ec0ca3b1a3187ac01f0c,20465,r,Please indicate how likely you think the shown events will occur. Click on RUN to see!,ind0,animation_slider,10,0.25,y,0.2475247622781692
6001ec0ca3b1a3187ac01f0c,20465,r,Please indicate how likely you think the shown events will occur. Click on RUN to see!,ind0,animation_slider,10,0.22,none,0.21782190961619957
6001ec0ca3b1a3187ac01f0c,18375,ry,Please indicate how likely you think the shown events will occur. Click on RUN to see!,ac0,animation_slider,11,0.27,ry,0.26999992000032
6001ec0ca3b1a3187ac01f0c,18375,ry,Please indicate how likely you think the shown events will occur. Click on RUN to see!,ac0,animation_slider,11,0.3,r,0.2999998000008
6001ec0ca3b1a3187ac01f0c,18375,ry,Please indicate how likely you think the shown events will occur. Click on RUN to see!,ac0,animation_slider,11,0.26,y,0.25999996000016
6001ec0ca3b1a3187ac01f0c,18375,ry,Please indicate how likely you think the shown events will occur. Click on RUN to see!,ac0,animation_slider,11,0.17,none,0.17000031999872003
6001ec0ca3b1a3187ac01f0c,21080,y,Please indicate how likely you think the shown events will occur. Click on RUN to see!,ac1,animation_slider,12,0.29,ry,0.28999984000064
6001ec0ca3b1a3187ac01f0c,21080,y,Please indicate how likely you think the shown events will occur. Click on RUN to see!,ac1,animation_slider,12,0.29,r,0.28999984000064
6001ec0ca3b1a3187ac01f0c,21080,y,Please indicate how likely you think the shown events will occur. Click on RUN to see!,ac1,animation_slider,12,0.17,y,0.17000031999872003
6001ec0ca3b1a3187ac01f0c,21080,y,Please indicate how likely you think the shown events will occur. Click on RUN to see!,ac1,animation_slider,12,0.25,none,0.25
6001ec0ca3b1a3187ac01f0c,34951,ry,Please indicate how likely you think the shown events will occur. Click on RUN to see!,ac2,animation_slider,13,0.44,ry,0.43999924000304
6001ec0ca3b1a3187ac01f0c,34951,ry,Please indicate how likely you think the shown events will occur. Click on RUN to see!,ac2,animation_slider,13,0.27,r,0.26999992000032
6001ec0ca3b1a3187ac01f0c,34951,ry,Please indicate how likely you think the shown events will occur. Click on RUN to see!,ac2,animation_slider,13,0.17,y,0.17000031999872003
6001ec0ca3b1a3187ac01f0c,34951,ry,Please indicate how likely you think the shown events will occur. Click on RUN to see!,ac2,animation_slider,13,0.12,none,0.12000051999792002
6001ec0ca3b1a3187ac01f0c,20492,r,Please indicate how likely you think the shown events will occur. Click on RUN to see!,uncertain2,animation_slider,14,0.27,ry,0.26999992000032
6001ec0ca3b1a3187ac01f0c,20492,r,Please indicate how likely you think the shown events will occur. Click on RUN to see!,uncertain2,animation_slider,14,0.23,r,0.23000007999968003
6001ec0ca3b1a3187ac01f0c,20492,r,Please indicate how likely you think the shown events will occur. Click on RUN to see!,uncertain2,animation_slider,14,0.25,y,0.25
6001ec0ca3b1a3187ac01f0c,20492,r,Please indicate how likely you think the shown events will occur. Click on RUN to see!,uncertain2,animation_slider,14,0.25,none,0.25
5fc9a824ca46654eeaab0f6e,84948,y,Please indicate how likely you think the shown events will occur. Click on RUN to see!,uncertain3,animation_slider,1,0.37,ry,0.36999952000192
5fc9a824ca46654eeaab0f6e,84948,y,Please indicate how likely you think the shown events will occur. Click on RUN to see!,uncertain3,animation_slider,1,0.09,r,0.09000063999744001
5fc9a824ca46654eeaab0f6e,84948,y,Please indicate how likely you think the shown events will occur. Click on RUN to see!,uncertain3,animation_slider,1,0.42,y,0.41999932000272
5fc9a824ca46654eeaab0f6e,84948,y,Please indicate how likely you think the shown events will occur. Click on RUN to see!,uncertain3,animation_slider,1,0.12,none,0.12000051999792002
5fc9a824ca46654eeaab0f6e,44738,r,Please indicate how likely you think the shown events will occur. Click on RUN to see!,uncertain1,animation_slider,2,0.21,ry,0.21000015999935998
5fc9a824ca46654eeaab0f6e,44738,r,Please indicate how likely you think the shown events will occur. Click on RUN to see!,uncertain1,animation_slider,2,0.2,r,0.2000001999992
5fc9a824ca46654eeaab0f6e,44738,r,Please indicate how likely you think the shown events will occur. Click on RUN to see!,uncertain1,animation_slider,2,0.08,y,0.08000067999728
5fc9a824ca46654eeaab0f6e,44738,r,Please indicate how likely you think the shown events will occur. Click on RUN to see!,uncertain1,animation_slider,2,0.51,none,0.50999896000416
5fc9a824ca46654eeaab0f6e,45702,y,Please indicate how likely you think the shown events will occur. Click on RUN to see!,distance1,animation_slider,3,1,ry,0.999997000012
5fc9a824ca46654eeaab0f6e,45702,y,Please indicate how likely you think the shown events will occur. Click on RUN to see!,distance1,animation_slider,3,0,r,9.99996000016e-7
5fc9a824ca46654eeaab0f6e,45702,y,Please indicate how likely you think the shown events will occur. Click on RUN to see!,distance1,animation_slider,3,0,y,9.99996000016e-7
5fc9a824ca46654eeaab0f6e,45702,y,Please indicate how likely you think the shown events will occur. Click on RUN to see!,distance1,animation_slider,3,0,none,9.99996000016e-7
5fc9a824ca46654eeaab0f6e,43924,r,Please indicate how likely you think the shown events will occur. Click on RUN to see!,distance0,animation_slider,4,0.18,ry,0.1782181060669067
5fc9a824ca46654eeaab0f6e,43924,r,Please indicate how likely you think the shown events will occur. Click on RUN to see!,distance0,animation_slider,4,0.44,r,0.43564282913731034
5fc9a824ca46654eeaab0f6e,43924,r,Please indicate how likely you think the shown events will occur. Click on RUN to see!,distance0,animation_slider,4,0.13,y,0.1287133516302906
5fc9a824ca46654eeaab0f6e,43924,r,Please indicate how likely you think the shown events will occur. Click on RUN to see!,distance0,animation_slider,4,0.26,none,0.2574257131654924
5fc9a824ca46654eeaab0f6e,40586,r,Please indicate how likely you think the shown events will occur. Click on RUN to see!,ind0,animation_slider,5,0.26,ry,0.25999996000016
5fc9a824ca46654eeaab0f6e,40586,r,Please indicate how likely you think the shown events will occur. Click on RUN to see!,ind0,animation_slider,5,0.57,r,0.56999872000512
5fc9a824ca46654eeaab0f6e,40586,r,Please indicate how likely you think the shown events will occur. Click on RUN to see!,ind0,animation_slider,5,0.17,y,0.17000031999872003
5fc9a824ca46654eeaab0f6e,40586,r,Please indicate how likely you think the shown events will occur. Click on RUN to see!,ind0,animation_slider,5,0,none,9.99996000016e-7
5fc9a824ca46654eeaab0f6e,68517,ry,Please indicate how likely you think the shown events will occur. Click on RUN to see!,ssw0,animation_slider,6,0.3,ry,0.2999998000007999
5fc9a824ca46654eeaab0f6e,68517,ry,Please indicate how likely you think the shown events will occur. Click on RUN to see!,ssw0,animation_slider,6,0.05,r,0.05000079999680001
5fc9a824ca46654eeaab0f6e,68517,ry,Please indicate how likely you think the shown events will occur. Click on RUN to see!,ssw0,animation_slider,6,0.65,y,0.6499984000064
5fc9a824ca46654eeaab0f6e,68517,ry,Please indicate how likely you think the shown events will occur. Click on RUN to see!,ssw0,animation_slider,6,0,none,9.999960000159999e-7
5fc9a824ca46654eeaab0f6e,33813,y,Please indicate how likely you think the shown events will occur. Click on RUN to see!,ac1,animation_slider,7,0.38,ry,0.37623712381337104
5fc9a824ca46654eeaab0f6e,33813,y,Please indicate how likely you think the shown events will occur. Click on RUN to see!,ac1,animation_slider,7,0.19,r,0.1881190569542299
5fc9a824ca46654eeaab0f6e,33813,y,Please indicate how likely you think the shown events will occur. Click on RUN to see!,ac1,animation_slider,7,0.32,y,0.31683141848943175
5fc9a824ca46654eeaab0f6e,33813,y,Please indicate how likely you think the shown events will occur. Click on RUN to see!,ac1,animation_slider,7,0.12,none,0.11881240074296737
5fc9a824ca46654eeaab0f6e,38023,ry,Please indicate how likely you think the shown events will occur. Click on RUN to see!,ac2,animation_slider,8,0.11,ry,0.11111167227607162
5fc9a824ca46654eeaab0f6e,38023,ry,Please indicate how likely you think the shown events will occur. Click on RUN to see!,ac2,animation_slider,8,0.49,r,0.4949485052585646
5fc9a824ca46654eeaab0f6e,38023,ry,Please indicate how likely you think the shown events will occur. Click on RUN to see!,ac2,animation_slider,8,0.13,y,0.13131361085409757
5fc9a824ca46654eeaab0f6e,38023,ry,Please indicate how likely you think the shown events will occur. Click on RUN to see!,ac2,animation_slider,8,0.26,none,0.2626262116112662
5fc9a824ca46654eeaab0f6e,29419,y,Please indicate how likely you think the shown events will occur. Click on RUN to see!,uncertain0,animation_slider,9,0.24,ry,0.24000003999984001
5fc9a824ca46654eeaab0f6e,29419,y,Please indicate how likely you think the shown events will occur. Click on RUN to see!,uncertain0,animation_slider,9,0.11,r,0.11000055999776003
5fc9a824ca46654eeaab0f6e,29419,y,Please indicate how likely you think the shown events will occur. Click on RUN to see!,uncertain0,animation_slider,9,0.43,y,0.42999928000288
5fc9a824ca46654eeaab0f6e,29419,y,Please indicate how likely you think the shown events will occur. Click on RUN to see!,uncertain0,animation_slider,9,0.22,none,0.22000011999952002
5fc9a824ca46654eeaab0f6e,41251,none,Please indicate how likely you think the shown events will occur. Click on RUN to see!,ssw1,animation_slider,10,0.44,ry,0.43999924000304
5fc9a824ca46654eeaab0f6e,41251,none,Please indicate how likely you think the shown events will occur. Click on RUN to see!,ssw1,animation_slider,10,0.29,r,0.28999984000064
5fc9a824ca46654eeaab0f6e,41251,none,Please indicate how likely you think the shown events will occur. Click on RUN to see!,ssw1,animation_slider,10,0.16,y,0.16000035999856002
5fc9a824ca46654eeaab0f6e,41251,none,Please indicate how likely you think the shown events will occur. Click on RUN to see!,ssw1,animation_slider,10,0.11,none,0.11000055999776003
5fc9a824ca46654eeaab0f6e,42120,ry,Please indicate how likely you think the shown events will occur. Click on RUN to see!,ac0,animation_slider,11,0.21,ry,0.21000015999935998
5fc9a824ca46654eeaab0f6e,42120,ry,Please indicate how likely you think the shown events will occur. Click on RUN to see!,ac0,animation_slider,11,0.53,r,0.5299988800044799
5fc9a824ca46654eeaab0f6e,42120,ry,Please indicate how likely you think the shown events will occur. Click on RUN to see!,ac0,animation_slider,11,0.18,y,0.18000027999888
5fc9a824ca46654eeaab0f6e,42120,ry,Please indicate how likely you think the shown events will occur. Click on RUN to see!,ac0,animation_slider,11,0.08,none,0.08000067999728
5fc9a824ca46654eeaab0f6e,46050,none,Please indicate how likely you think the shown events will occur. Click on RUN to see!,ac3,animation_slider,12,0.06,ry,0.060000759996960015
5fc9a824ca46654eeaab0f6e,46050,none,Please indicate how likely you think the shown events will occur. Click on RUN to see!,ac3,animation_slider,12,0.16,r,0.16000035999856002
5fc9a824ca46654eeaab0f6e,46050,none,Please indicate how likely you think the shown events will occur. Click on RUN to see!,ac3,animation_slider,12,0.21,y,0.21000015999936003
5fc9a824ca46654eeaab0f6e,46050,none,Please indicate how likely you think the shown events will occur. Click on RUN to see!,ac3,animation_slider,12,0.57,none,0.56999872000512
5fc9a824ca46654eeaab0f6e,40736,ry,Please indicate how likely you think the shown events will occur. Click on RUN to see!,ind1,animation_slider,13,0.47,ry,0.46999912000352
5fc9a824ca46654eeaab0f6e,40736,ry,Please indicate how likely you think the shown events will occur. Click on RUN to see!,ind1,animation_slider,13,0.16,r,0.16000035999856002
5fc9a824ca46654eeaab0f6e,40736,ry,Please indicate how likely you think the shown events will occur. Click on RUN to see!,ind1,animation_slider,13,0.25,y,0.25
5fc9a824ca46654eeaab0f6e,40736,ry,Please indicate how likely you think the shown events will occur. Click on RUN to see!,ind1,animation_slider,13,0.12,none,0.12000051999792002
5fc9a824ca46654eeaab0f6e,38646,r,Please indicate how likely you think the shown events will occur. Click on RUN to see!,uncertain2,animation_slider,14,0.27,ry,0.26732666405281563
5fc9a824ca46654eeaab0f6e,38646,r,Please indicate how likely you think the shown events will occur. Click on RUN to see!,uncertain2,animation_slider,14,0.44,r,0.43564282913731034
5fc9a824ca46654eeaab0f6e,38646,r,Please indicate how likely you think the shown events will occur. Click on RUN to see!,uncertain2,animation_slider,14,0.19,y,0.1881190569542299
5fc9a824ca46654eeaab0f6e,38646,r,Please indicate how likely you think the shown events will occur. Click on RUN to see!,uncertain2,animation_slider,14,0.11,none,0.10891144985564415
5ee454ad40c72e152991826e,79296,y,Please indicate how likely you think the shown events will occur. Click on RUN to see!,uncertain3,animation_slider,1,0.27,ry,0.26999992000032
5ee454ad40c72e152991826e,79296,y,Please indicate how likely you think the shown events will occur. Click on RUN to see!,uncertain3,animation_slider,1,0.18,r,0.18000027999888002
5ee454ad40c72e152991826e,79296,y,Please indicate how likely you think the shown events will occur. Click on RUN to see!,uncertain3,animation_slider,1,0.36,y,0.35999956000176
5ee454ad40c72e152991826e,79296,y,Please indicate how likely you think the shown events will occur. Click on RUN to see!,uncertain3,animation_slider,1,0.19,none,0.19000023999904003
5ee454ad40c72e152991826e,41136,r,Please indicate how likely you think the shown events will occur. Click on RUN to see!,uncertain1,animation_slider,2,0.06,ry,0.06060682583100674
5ee454ad40c72e152991826e,41136,r,Please indicate how likely you think the shown events will occur. Click on RUN to see!,uncertain1,animation_slider,2,0.56,r,0.5656552902816554
5ee454ad40c72e152991826e,41136,r,Please indicate how likely you think the shown events will occur. Click on RUN to see!,uncertain1,animation_slider,2,0.07,y,0.07070779512001972
5ee454ad40c72e152991826e,41136,r,Please indicate how likely you think the shown events will occur. Click on RUN to see!,uncertain1,animation_slider,2,0.3,none,0.303030088767318
5ee454ad40c72e152991826e,49012,r,Please indicate how likely you think the shown events will occur. Click on RUN to see!,distance0,animation_slider,3,0.5,ry,0.49999900000399994
5ee454ad40c72e152991826e,49012,r,Please indicate how likely you think the shown events will occur. Click on RUN to see!,distance0,animation_slider,3,0,r,9.999960000159999e-7
5ee454ad40c72e152991826e,49012,r,Please indicate how likely you think the shown events will occur. Click on RUN to see!,distance0,animation_slider,3,0,y,9.999960000159999e-7
5ee454ad40c72e152991826e,49012,r,Please indicate how likely you think the shown events will occur. Click on RUN to see!,distance0,animation_slider,3,0.5,none,0.49999900000399994
5ee454ad40c72e152991826e,38081,y,Please indicate how likely you think the shown events will occur. Click on RUN to see!,distance1,animation_slider,4,0.6,ry,0.5999986000056
5ee454ad40c72e152991826e,38081,y,Please indicate how likely you think the shown events will occur. Click on RUN to see!,distance1,animation_slider,4,0,r,9.99996000016e-7
5ee454ad40c72e152991826e,38081,y,Please indicate how likely you think the shown events will occur. Click on RUN to see!,distance1,animation_slider,4,0,y,9.99996000016e-7
5ee454ad40c72e152991826e,38081,y,Please indicate how likely you think the shown events will occur. Click on RUN to see!,distance1,animation_slider,4,0.4,none,0.39999940000240003
5ee454ad40c72e152991826e,23250,none,Please indicate how likely you think the shown events will occur. Click on RUN to see!,ssw1,animation_slider,5,0.25,ry,0.25
5ee454ad40c72e152991826e,23250,none,Please indicate how likely you think the shown events will occur. Click on RUN to see!,ssw1,animation_slider,5,0.25,r,0.25
5ee454ad40c72e152991826e,23250,none,Please indicate how likely you think the shown events will occur. Click on RUN to see!,ssw1,animation_slider,5,0.25,y,0.25
5ee454ad40c72e152991826e,23250,none,Please indicate how likely you think the shown events will occur. Click on RUN to see!,ssw1,animation_slider,5,0.25,none,0.25
5ee454ad40c72e152991826e,34221,ry,Please indicate how likely you think the shown events will occur. Click on RUN to see!,ssw0,animation_slider,6,0.08,ry,0.07920859719367448
5ee454ad40c72e152991826e,34221,ry,Please indicate how likely you think the shown events will occur. Click on RUN to see!,ssw0,animation_slider,6,0.24,r,0.23762381139084598
5ee454ad40c72e152991826e,34221,ry,Please indicate how likely you think the shown events will occur. Click on RUN to see!,ssw0,animation_slider,6,0.45,y,0.4455437800246336
5ee454ad40c72e152991826e,34221,ry,Please indicate how likely you think the shown events will occur. Click on RUN to see!,ssw0,animation_slider,6,0.24,none,0.23762381139084598
5ee454ad40c72e152991826e,36173,y,Please indicate how likely you think the shown events will occur. Click on RUN to see!,ac1,animation_slider,7,0.27,ry,0.26732666405281563
5ee454ad40c72e152991826e,36173,y,Please indicate how likely you think the shown events will occur. Click on RUN to see!,ac1,animation_slider,7,0,r,9.900950887323218e-7
5ee454ad40c72e152991826e,36173,y,Please indicate how likely you think the shown events will occur. Click on RUN to see!,ac1,animation_slider,7,0.47,y,0.46534568179928
5ee454ad40c72e152991826e,36173,y,Please indicate how likely you think the shown events will occur. Click on RUN to see!,ac1,animation_slider,7,0.27,none,0.26732666405281563
5ee454ad40c72e152991826e,29036,ry,Please indicate how likely you think the shown events will occur. Click on RUN to see!,ac0,animation_slider,8,0.79,ry,0.7899978400086399
5ee454ad40c72e152991826e,29036,ry,Please indicate how likely you think the shown events will occur. Click on RUN to see!,ac0,animation_slider,8,0.21,r,0.21000015999935998
5ee454ad40c72e152991826e,29036,ry,Please indicate how likely you think the shown events will occur. Click on RUN to see!,ac0,animation_slider,8,0,y,9.999960000159999e-7
5ee454ad40c72e152991826e,29036,ry,Please indicate how likely you think the shown events will occur. Click on RUN to see!,ac0,animation_slider,8,0,none,9.999960000159999e-7
5ee454ad40c72e152991826e,27483,y,Please indicate how likely you think the shown events will occur. Click on RUN to see!,uncertain0,animation_slider,9,0.45,ry,0.44999920000320004
5ee454ad40c72e152991826e,27483,y,Please indicate how likely you think the shown events will occur. Click on RUN to see!,uncertain0,animation_slider,9,0.19,r,0.19000023999904003
5ee454ad40c72e152991826e,27483,y,Please indicate how likely you think the shown events will occur. Click on RUN to see!,uncertain0,animation_slider,9,0.36,y,0.35999956000176
5ee454ad40c72e152991826e,27483,y,Please indicate how likely you think the shown events will occur. Click on RUN to see!,uncertain0,animation_slider,9,0,none,9.99996000016e-7
5ee454ad40c72e152991826e,28054,r,Please indicate how likely you think the shown events will occur. Click on RUN to see!,ind0,animation_slider,10,0,ry,9.99996000016e-7
5ee454ad40c72e152991826e,28054,r,Please indicate how likely you think the shown events will occur. Click on RUN to see!,ind0,animation_slider,10,0.58,r,0.57999868000528
5ee454ad40c72e152991826e,28054,r,Please indicate how likely you think the shown events will occur. Click on RUN to see!,ind0,animation_slider,10,0.24,y,0.24000003999984001
5ee454ad40c72e152991826e,28054,r,Please indicate how likely you think the shown events will occur. Click on RUN to see!,ind0,animation_slider,10,0.18,none,0.18000027999888002
5ee454ad40c72e152991826e,26796,ry,Please indicate how likely you think the shown events will occur. Click on RUN to see!,ac2,animation_slider,11,0.28,ry,0.27999988000048
5ee454ad40c72e152991826e,26796,ry,Please indicate how likely you think the shown events will occur. Click on RUN to see!,ac2,animation_slider,11,0.56,r,0.55999876000496
5ee454ad40c72e152991826e,26796,ry,Please indicate how likely you think the shown events will occur. Click on RUN to see!,ac2,animation_slider,11,0,y,9.999960000159999e-7
5ee454ad40c72e152991826e,26796,ry,Please indicate how likely you think the shown events will occur. Click on RUN to see!,ac2,animation_slider,11,0.16,none,0.16000035999856
5ee454ad40c72e152991826e,30046,none,Please indicate how likely you think the shown events will occur. Click on RUN to see!,ac3,animation_slider,12,0.53,ry,0.5299988800044799
5ee454ad40c72e152991826e,30046,none,Please indicate how likely you think the shown events will occur. Click on RUN to see!,ac3,animation_slider,12,0,r,9.999960000159999e-7
5ee454ad40c72e152991826e,30046,none,Please indicate how likely you think the shown events will occur. Click on RUN to see!,ac3,animation_slider,12,0.37,y,0.36999952000191993
5ee454ad40c72e152991826e,30046,none,Please indicate how likely you think the shown events will occur. Click on RUN to see!,ac3,animation_slider,12,0.1,none,0.1000005999976
5ee454ad40c72e152991826e,28101,ry,Please indicate how likely you think the shown events will occur. Click on RUN to see!,ind1,animation_slider,13,0.04,ry,0.04000083999664002
5ee454ad40c72e152991826e,28101,ry,Please indicate how likely you think the shown events will occur. Click on RUN to see!,ind1,animation_slider,13,0.35,r,0.34999960000159996
5ee454ad40c72e152991826e,28101,ry,Please indicate how likely you think the shown events will occur. Click on RUN to see!,ind1,animation_slider,13,0.16,y,0.16000035999856002
5ee454ad40c72e152991826e,28101,ry,Please indicate how likely you think the shown events will occur. Click on RUN to see!,ind1,animation_slider,13,0.45,none,0.44999920000320004
5ee454ad40c72e152991826e,27122,r,Please indicate how likely you think the shown events will occur. Click on RUN to see!,uncertain2,animation_slider,14,0.48,ry,0.4752466326866032
5ee454ad40c72e152991826e,27122,r,Please indicate how likely you think the shown events will occur. Click on RUN to see!,uncertain2,animation_slider,14,0.13,r,0.1287133516302906
5ee454ad40c72e152991826e,27122,r,Please indicate how likely you think the shown events will occur. Click on RUN to see!,uncertain2,animation_slider,14,0.26,y,0.2574257131654924
5ee454ad40c72e152991826e,27122,r,Please indicate how likely you think the shown events will occur. Click on RUN to see!,uncertain2,animation_slider,14,0.14,none,0.1386143025176138
5df009be35886f068d794ebd,66775,y,Please indicate how likely you think the shown events will occur. Click on RUN to see!,uncertain3,animation_slider,1,1,ry,0.999997000012
5df009be35886f068d794ebd,66775,y,Please indicate how likely you think the shown events will occur. Click on RUN to see!,uncertain3,animation_slider,1,0,r,9.99996000016e-7
5df009be35886f068d794ebd,66775,y,Please indicate how likely you think the shown events will occur. Click on RUN to see!,uncertain3,animation_slider,1,0,y,9.99996000016e-7
5df009be35886f068d794ebd,66775,y,Please indicate how likely you think the shown events will occur. Click on RUN to see!,uncertain3,animation_slider,1,0,none,9.99996000016e-7
5df009be35886f068d794ebd,62707,r,Please indicate how likely you think the shown events will occur. Click on RUN to see!,uncertain1,animation_slider,2,0.54,ry,0.5399988400046399
5df009be35886f068d794ebd,62707,r,Please indicate how likely you think the shown events will occur. Click on RUN to see!,uncertain1,animation_slider,2,0.32,r,0.3199997200011199
5df009be35886f068d794ebd,62707,r,Please indicate how likely you think the shown events will occur. Click on RUN to see!,uncertain1,animation_slider,2,0.14,y,0.14000043999824
5df009be35886f068d794ebd,62707,r,Please indicate how likely you think the shown events will occur. Click on RUN to see!,uncertain1,animation_slider,2,0,none,9.999960000159999e-7
5df009be35886f068d794ebd,40110,y,Please indicate how likely you think the shown events will occur. Click on RUN to see!,distance1,animation_slider,3,0.46,ry,0.45999916000336005
5df009be35886f068d794ebd,40110,y,Please indicate how likely you think the shown events will occur. Click on RUN to see!,distance1,animation_slider,3,0.26,r,0.25999996000016
5df009be35886f068d794ebd,40110,y,Please indicate how likely you think the shown events will occur. Click on RUN to see!,distance1,animation_slider,3,0.25,y,0.25
5df009be35886f068d794ebd,40110,y,Please indicate how likely you think the shown events will occur. Click on RUN to see!,distance1,animation_slider,3,0.03,none,0.030000879996480018
5df009be35886f068d794ebd,47637,r,Please indicate how likely you think the shown events will occur. Click on RUN to see!,distance0,animation_slider,4,0.14,ry,0.14000043999824002
5df009be35886f068d794ebd,47637,r,Please indicate how likely you think the shown events will occur. Click on RUN to see!,distance0,animation_slider,4,0.24,r,0.24000003999984001
5df009be35886f068d794ebd,47637,r,Please indicate how likely you think the shown events will occur. Click on RUN to see!,distance0,animation_slider,4,0.27,y,0.26999992000032
5df009be35886f068d794ebd,47637,r,Please indicate how likely you think the shown events will occur. Click on RUN to see!,distance0,animation_slider,4,0.35,none,0.34999960000159996
5df009be35886f068d794ebd,48076,none,Please indicate how likely you think the shown events will occur. Click on RUN to see!,ssw1,animation_slider,5,0.19,ry,0.1881190569542299
5df009be35886f068d794ebd,48076,none,Please indicate how likely you think the shown events will occur. Click on RUN to see!,ssw1,animation_slider,5,0.19,r,0.1881190569542299
5df009be35886f068d794ebd,48076,none,Please indicate how likely you think the shown events will occur. Click on RUN to see!,ssw1,animation_slider,5,0.19,y,0.1881190569542299
5df009be35886f068d794ebd,48076,none,Please indicate how likely you think the shown events will occur. Click on RUN to see!,ssw1,animation_slider,5,0.44,none,0.43564282913731034
5df009be35886f068d794ebd,36952,ry,Please indicate how likely you think the shown events will occur. Click on RUN to see!,ind1,animation_slider,6,0.33,ry,0.32999968000128
5df009be35886f068d794ebd,36952,ry,Please indicate how likely you think the shown events will occur. Click on RUN to see!,ind1,animation_slider,6,0.43,r,0.42999928000288
5df009be35886f068d794ebd,36952,ry,Please indicate how likely you think the shown events will occur. Click on RUN to see!,ind1,animation_slider,6,0.08,y,0.08000067999728003
5df009be35886f068d794ebd,36952,ry,Please indicate how likely you think the shown events will occur. Click on RUN to see!,ind1,animation_slider,6,0.16,none,0.16000035999856002
5df009be35886f068d794ebd,34949,y,Please indicate how likely you think the shown events will occur. Click on RUN to see!,ac1,animation_slider,7,0.42,ry,0.41999932000272
5df009be35886f068d794ebd,34949,y,Please indicate how likely you think the shown events will occur. Click on RUN to see!,ac1,animation_slider,7,0.26,r,0.25999996000016
5df009be35886f068d794ebd,34949,y,Please indicate how likely you think the shown events will occur. Click on RUN to see!,ac1,animation_slider,7,0.08,y,0.08000067999728003
5df009be35886f068d794ebd,34949,y,Please indicate how likely you think the shown events will occur. Click on RUN to see!,ac1,animation_slider,7,0.24,none,0.24000003999984001
5df009be35886f068d794ebd,38691,ry,Please indicate how likely you think the shown events will occur. Click on RUN to see!,ac2,animation_slider,8,0.35,ry,0.34999960000159996
5df009be35886f068d794ebd,38691,ry,Please indicate how likely you think the shown events will occur. Click on RUN to see!,ac2,animation_slider,8,0.14,r,0.14000043999824002
5df009be35886f068d794ebd,38691,ry,Please indicate how likely you think the shown events will occur. Click on RUN to see!,ac2,animation_slider,8,0,y,9.99996000016e-7
5df009be35886f068d794ebd,38691,ry,Please indicate how likely you think the shown events will occur. Click on RUN to see!,ac2,animation_slider,8,0.51,none,0.5099989600041601
5df009be35886f068d794ebd,28782,y,Please indicate how likely you think the shown events will occur. Click on RUN to see!,uncertain0,animation_slider,9,0.43,ry,0.42574187824998716
5df009be35886f068d794ebd,28782,y,Please indicate how likely you think the shown events will occur. Click on RUN to see!,uncertain0,animation_slider,9,0.09,r,0.0891095480809977
5df009be35886f068d794ebd,28782,y,Please indicate how likely you think the shown events will occur. Click on RUN to see!,uncertain0,animation_slider,9,0.31,y,0.3069304676021085
5df009be35886f068d794ebd,28782,y,Please indicate how likely you think the shown events will occur. Click on RUN to see!,uncertain0,animation_slider,9,0.18,none,0.1782181060669067
5df009be35886f068d794ebd,31047,r,Please indicate how likely you think the shown events will occur. Click on RUN to see!,ind0,animation_slider,10,0.22,ry,0.22000011999952002
5df009be35886f068d794ebd,31047,r,Please indicate how likely you think the shown events will occur. Click on RUN to see!,ind0,animation_slider,10,0.19,r,0.19000023999904003
5df009be35886f068d794ebd,31047,r,Please indicate how likely you think the shown events will occur. Click on RUN to see!,ind0,animation_slider,10,0.32,y,0.31999972000112004
5df009be35886f068d794ebd,31047,r,Please indicate how likely you think the shown events will occur. Click on RUN to see!,ind0,animation_slider,10,0.27,none,0.26999992000032
5df009be35886f068d794ebd,30159,ry,Please indicate how likely you think the shown events will occur. Click on RUN to see!,ssw0,animation_slider,11,0.58,ry,0.57999868000528
5df009be35886f068d794ebd,30159,ry,Please indicate how likely you think the shown events will occur. Click on RUN to see!,ssw0,animation_slider,11,0,r,9.99996000016e-7
5df009be35886f068d794ebd,30159,ry,Please indicate how likely you think the shown events will occur. Click on RUN to see!,ssw0,animation_slider,11,0.31,y,0.30999976000096
5df009be35886f068d794ebd,30159,ry,Please indicate how likely you think the shown events will occur. Click on RUN to see!,ssw0,animation_slider,11,0.11,none,0.11000055999776003
5df009be35886f068d794ebd,32621,none,Please indicate how likely you think the shown events will occur. Click on RUN to see!,ac3,animation_slider,12,0.35,ry,0.34999960000159996
5df009be35886f068d794ebd,32621,none,Please indicate how likely you think the shown events will occur. Click on RUN to see!,ac3,animation_slider,12,0,r,9.99996000016e-7
5df009be35886f068d794ebd,32621,none,Please indicate how likely you think the shown events will occur. Click on RUN to see!,ac3,animation_slider,12,0.42,y,0.41999932000272
5df009be35886f068d794ebd,32621,none,Please indicate how likely you think the shown events will occur. Click on RUN to see!,ac3,animation_slider,12,0.23,none,0.23000007999968003
5df009be35886f068d794ebd,27574,ry,Please indicate how likely you think the shown events will occur. Click on RUN to see!,ac0,animation_slider,13,0.34,ry,0.33999964000144
5df009be35886f068d794ebd,27574,ry,Please indicate how likely you think the shown events will occur. Click on RUN to see!,ac0,animation_slider,13,0.41,r,0.40999936000256
5df009be35886f068d794ebd,27574,ry,Please indicate how likely you think the shown events will occur. Click on RUN to see!,ac0,animation_slider,13,0,y,9.99996000016e-7
5df009be35886f068d794ebd,27574,ry,Please indicate how likely you think the shown events will occur. Click on RUN to see!,ac0,animation_slider,13,0.25,none,0.25
5df009be35886f068d794ebd,24925,r,Please indicate how likely you think the shown events will occur. Click on RUN to see!,uncertain2,animation_slider,14,0.26,ry,0.25999996000016
5df009be35886f068d794ebd,24925,r,Please indicate how likely you think the shown events will occur. Click on RUN to see!,uncertain2,animation_slider,14,0.06,r,0.060000759996960015
5df009be35886f068d794ebd,24925,r,Please indicate how likely you think the shown events will occur. Click on RUN to see!,uncertain2,animation_slider,14,0.38,y,0.37999948000208
5df009be35886f068d794ebd,24925,r,Please indicate how likely you think the shown events will occur. Click on RUN to see!,uncertain2,animation_slider,14,0.3,none,0.2999998000008
5ea98a3faafdd809224b48ec,75901,y,Please indicate how likely you think the shown events will occur. Click on RUN to see!,uncertain3,animation_slider,1,0.31,ry,0.30999976000096
5ea98a3faafdd809224b48ec,75901,y,Please indicate how likely you think the shown events will occur. Click on RUN to see!,uncertain3,animation_slider,1,0.08,r,0.08000067999728003
5ea98a3faafdd809224b48ec,75901,y,Please indicate how likely you think the shown events will occur. Click on RUN to see!,uncertain3,animation_slider,1,0.59,y,0.58999864000544
5ea98a3faafdd809224b48ec,75901,y,Please indicate how likely you think the shown events will occur. Click on RUN to see!,uncertain3,animation_slider,1,0.02,none,0.02000091999632002
5ea98a3faafdd809224b48ec,36179,r,Please indicate how likely you think the shown events will occur. Click on RUN to see!,uncertain1,animation_slider,2,0.11,ry,0.11000055999776
5ea98a3faafdd809224b48ec,36179,r,Please indicate how likely you think the shown events will occur. Click on RUN to see!,uncertain1,animation_slider,2,0.61,r,0.6099985600057599
5ea98a3faafdd809224b48ec,36179,r,Please indicate how likely you think the shown events will occur. Click on RUN to see!,uncertain1,animation_slider,2,0.04,y,0.04000083999664001
5ea98a3faafdd809224b48ec,36179,r,Please indicate how likely you think the shown events will occur. Click on RUN to see!,uncertain1,animation_slider,2,0.24,none,0.24000003999983996
5ea98a3faafdd809224b48ec,53877,r,Please indicate how likely you think the shown events will occur. Click on RUN to see!,distance0,animation_slider,3,0.43,ry,0.42999928000288
5ea98a3faafdd809224b48ec,53877,r,Please indicate how likely you think the shown events will occur. Click on RUN to see!,distance0,animation_slider,3,0.38,r,0.37999948000208
5ea98a3faafdd809224b48ec,53877,r,Please indicate how likely you think the shown events will occur. Click on RUN to see!,distance0,animation_slider,3,0,y,9.99996000016e-7
5ea98a3faafdd809224b48ec,53877,r,Please indicate how likely you think the shown events will occur. Click on RUN to see!,distance0,animation_slider,3,0.19,none,0.19000023999904003
5ea98a3faafdd809224b48ec,31837,y,Please indicate how likely you think the shown events will occur. Click on RUN to see!,distance1,animation_slider,4,0.44,ry,0.43564282913731034
5ea98a3faafdd809224b48ec,31837,y,Please indicate how likely you think the shown events will occur. Click on RUN to see!,distance1,animation_slider,4,0,r,9.900950887323218e-7
5ea98a3faafdd809224b48ec,31837,y,Please indicate how likely you think the shown events will occur. Click on RUN to see!,distance1,animation_slider,4,0.33,y,0.326732369376755
5ea98a3faafdd809224b48ec,31837,y,Please indicate how likely you think the shown events will occur. Click on RUN to see!,distance1,animation_slider,4,0.24,none,0.23762381139084598
5ea98a3faafdd809224b48ec,47927,y,Please indicate how likely you think the shown events will occur. Click on RUN to see!,ac1,animation_slider,5,0,ry,9.99996000016e-7
5ea98a3faafdd809224b48ec,47927,y,Please indicate how likely you think the shown events will occur. Click on RUN to see!,ac1,animation_slider,5,0.03,r,0.030000879996480018
5ea98a3faafdd809224b48ec,47927,y,Please indicate how likely you think the shown events will occur. Click on RUN to see!,ac1,animation_slider,5,0.13,y,0.13000047999808004
5ea98a3faafdd809224b48ec,47927,y,Please indicate how likely you think the shown events will occur. Click on RUN to see!,ac1,animation_slider,5,0.84,none,0.8399976400094401
5ea98a3faafdd809224b48ec,31678,ry,Please indicate how likely you think the shown events will occur. Click on RUN to see!,ssw0,animation_slider,6,0.44,ry,0.43999924000304
5ea98a3faafdd809224b48ec,31678,ry,Please indicate how likely you think the shown events will occur. Click on RUN to see!,ssw0,animation_slider,6,0.18,r,0.18000027999888002
5ea98a3faafdd809224b48ec,31678,ry,Please indicate how likely you think the shown events will occur. Click on RUN to see!,ssw0,animation_slider,6,0.38,y,0.37999948000208
5ea98a3faafdd809224b48ec,31678,ry,Please indicate how likely you think the shown events will occur. Click on RUN to see!,ssw0,animation_slider,6,0,none,9.99996000016e-7
5ea98a3faafdd809224b48ec,34643,none,Please indicate how likely you think the shown events will occur. Click on RUN to see!,ssw1,animation_slider,7,0.58,ry,0.57999868000528
5ea98a3faafdd809224b48ec,34643,none,Please indicate how likely you think the shown events will occur. Click on RUN to see!,ssw1,animation_slider,7,0,r,9.99996000016e-7
5ea98a3faafdd809224b48ec,34643,none,Please indicate how likely you think the shown events will occur. Click on RUN to see!,ssw1,animation_slider,7,0.42,y,0.41999932000272
5ea98a3faafdd809224b48ec,34643,none,Please indicate how likely you think the shown events will occur. Click on RUN to see!,ssw1,animation_slider,7,0,none,9.99996000016e-7
5ea98a3faafdd809224b48ec,32933,ry,Please indicate how likely you think the shown events will occur. Click on RUN to see!,ac0,animation_slider,8,0,ry,9.999960000159999e-7
5ea98a3faafdd809224b48ec,32933,ry,Please indicate how likely you think the shown events will occur. Click on RUN to see!,ac0,animation_slider,8,0,r,9.999960000159999e-7
5ea98a3faafdd809224b48ec,32933,ry,Please indicate how likely you think the shown events will occur. Click on RUN to see!,ac0,animation_slider,8,0.19,y,0.19000023999903998
5ea98a3faafdd809224b48ec,32933,ry,Please indicate how likely you think the shown events will occur. Click on RUN to see!,ac0,animation_slider,8,0.81,none,0.80999776000896
5ea98a3faafdd809224b48ec,46934,y,Please indicate how likely you think the shown events will occur. Click on RUN to see!,uncertain0,animation_slider,9,0.1,ry,0.10000059999760003
5ea98a3faafdd809224b48ec,46934,y,Please indicate how likely you think the shown events will occur. Click on RUN to see!,uncertain0,animation_slider,9,0,r,9.99996000016e-7
5ea98a3faafdd809224b48ec,46934,y,Please indicate how likely you think the shown events will occur. Click on RUN to see!,uncertain0,animation_slider,9,0.33,y,0.32999968000128
5ea98a3faafdd809224b48ec,46934,y,Please indicate how likely you think the shown events will occur. Click on RUN to see!,uncertain0,animation_slider,9,0.57,none,0.56999872000512
5ea98a3faafdd809224b48ec,30732,none,Please indicate how likely you think the shown events will occur. Click on RUN to see!,ac3,animation_slider,10,0.75,ry,0.7499980000080001
5ea98a3faafdd809224b48ec,30732,none,Please indicate how likely you think the shown events will occur. Click on RUN to see!,ac3,animation_slider,10,0,r,9.99996000016e-7
5ea98a3faafdd809224b48ec,30732,none,Please indicate how likely you think the shown events will occur. Click on RUN to see!,ac3,animation_slider,10,0.25,y,0.25
5ea98a3faafdd809224b48ec,30732,none,Please indicate how likely you think the shown events will occur. Click on RUN to see!,ac3,animation_slider,10,0,none,9.99996000016e-7
5ea98a3faafdd809224b48ec,31629,ry,Please indicate how likely you think the shown events will occur. Click on RUN to see!,ac2,animation_slider,11,0.58,ry,0.57999868000528
5ea98a3faafdd809224b48ec,31629,ry,Please indicate how likely you think the shown events will occur. Click on RUN to see!,ac2,animation_slider,11,0,r,9.99996000016e-7
5ea98a3faafdd809224b48ec,31629,ry,Please indicate how likely you think the shown events will occur. Click on RUN to see!,ac2,animation_slider,11,0,y,9.99996000016e-7
5ea98a3faafdd809224b48ec,31629,ry,Please indicate how likely you think the shown events will occur. Click on RUN to see!,ac2,animation_slider,11,0.42,none,0.41999932000272
5ea98a3faafdd809224b48ec,19394,r,Please indicate how likely you think the shown events will occur. Click on RUN to see!,ind0,animation_slider,12,0,ry,9.99996000016e-7
5ea98a3faafdd809224b48ec,19394,r,Please indicate how likely you think the shown events will occur. Click on RUN to see!,ind0,animation_slider,12,1,r,0.999997000012
5ea98a3faafdd809224b48ec,19394,r,Please indicate how likely you think the shown events will occur. Click on RUN to see!,ind0,animation_slider,12,0,y,9.99996000016e-7
5ea98a3faafdd809224b48ec,19394,r,Please indicate how likely you think the shown events will occur. Click on RUN to see!,ind0,animation_slider,12,0,none,9.99996000016e-7
5ea98a3faafdd809224b48ec,21834,ry,Please indicate how likely you think the shown events will occur. Click on RUN to see!,ind1,animation_slider,13,0,ry,9.99996000016e-7
5ea98a3faafdd809224b48ec,21834,ry,Please indicate how likely you think the shown events will occur. Click on RUN to see!,ind1,animation_slider,13,0.73,r,0.7299980800076801
5ea98a3faafdd809224b48ec,21834,ry,Please indicate how likely you think the shown events will occur. Click on RUN to see!,ind1,animation_slider,13,0,y,9.99996000016e-7
5ea98a3faafdd809224b48ec,21834,ry,Please indicate how likely you think the shown events will occur. Click on RUN to see!,ind1,animation_slider,13,0.27,none,0.26999992000032
5ea98a3faafdd809224b48ec,34633,r,Please indicate how likely you think the shown events will occur. Click on RUN to see!,uncertain2,animation_slider,14,0.45,ry,0.44999920000320004
5ea98a3faafdd809224b48ec,34633,r,Please indicate how likely you think the shown events will occur. Click on RUN to see!,uncertain2,animation_slider,14,0.41,r,0.40999936000256
5ea98a3faafdd809224b48ec,34633,r,Please indicate how likely you think the shown events will occur. Click on RUN to see!,uncertain2,animation_slider,14,0,y,9.99996000016e-7
5ea98a3faafdd809224b48ec,34633,r,Please indicate how likely you think the shown events will occur. Click on RUN to see!,uncertain2,animation_slider,14,0.14,none,0.14000043999824002
5fc0488da7ba234c771ef4b5,155791,y,Please indicate how likely you think the shown events will occur. Click on RUN to see!,uncertain3,animation_slider,1,0.19,ry,0.19000023999904003
5fc0488da7ba234c771ef4b5,155791,y,Please indicate how likely you think the shown events will occur. Click on RUN to see!,uncertain3,animation_slider,1,0.05,r,0.05000079999680002
5fc0488da7ba234c771ef4b5,155791,y,Please indicate how likely you think the shown events will occur. Click on RUN to see!,uncertain3,animation_slider,1,0.57,y,0.56999872000512
5fc0488da7ba234c771ef4b5,155791,y,Please indicate how likely you think the shown events will occur. Click on RUN to see!,uncertain3,animation_slider,1,0.19,none,0.19000023999904003
5fc0488da7ba234c771ef4b5,43570,r,Please indicate how likely you think the shown events will occur. Click on RUN to see!,uncertain1,animation_slider,2,0.3,ry,0.2970295167147853
5fc0488da7ba234c771ef4b5,43570,r,Please indicate how likely you think the shown events will occur. Click on RUN to see!,uncertain1,animation_slider,2,0.42,r,0.4158409273626639
5fc0488da7ba234c771ef4b5,43570,r,Please indicate how likely you think the shown events will occur. Click on RUN to see!,uncertain1,animation_slider,2,0.09,y,0.0891095480809977
5fc0488da7ba234c771ef4b5,43570,r,Please indicate how likely you think the shown events will occur. Click on RUN to see!,uncertain1,animation_slider,2,0.2,none,0.19802000784155313
5fc0488da7ba234c771ef4b5,47746,r,Please indicate how likely you think the shown events will occur. Click on RUN to see!,distance0,animation_slider,3,0.14,ry,0.1386143025176138
5fc0488da7ba234c771ef4b5,47746,r,Please indicate how likely you think the shown events will occur. Click on RUN to see!,distance0,animation_slider,3,0.45,r,0.4455437800246336
5fc0488da7ba234c771ef4b5,47746,r,Please indicate how likely you think the shown events will occur. Click on RUN to see!,distance0,animation_slider,3,0.04,y,0.03960479364438161
5fc0488da7ba234c771ef4b5,47746,r,Please indicate how likely you think the shown events will occur. Click on RUN to see!,distance0,animation_slider,3,0.38,none,0.37623712381337104
5fc0488da7ba234c771ef4b5,36961,y,Please indicate how likely you think the shown events will occur. Click on RUN to see!,distance1,animation_slider,4,0.49,ry,0.48514758357392646
5fc0488da7ba234c771ef4b5,36961,y,Please indicate how likely you think the shown events will occur. Click on RUN to see!,distance1,animation_slider,4,0.14,r,0.1386143025176138
5fc0488da7ba234c771ef4b5,36961,y,Please indicate how likely you think the shown events will occur. Click on RUN to see!,distance1,animation_slider,4,0.23,y,0.22772286050352278
5fc0488da7ba234c771ef4b5,36961,y,Please indicate how likely you think the shown events will occur. Click on RUN to see!,distance1,animation_slider,4,0.15,none,0.14851525340493701
5fc0488da7ba234c771ef4b5,43818,r,Please indicate how likely you think the shown events will occur. Click on RUN to see!,ind0,animation_slider,5,0.06,ry,0.06000075999696
5fc0488da7ba234c771ef4b5,43818,r,Please indicate how likely you think the shown events will occur. Click on RUN to see!,ind0,animation_slider,5,0.68,r,0.67999828000688
5fc0488da7ba234c771ef4b5,43818,r,Please indicate how likely you think the shown events will occur. Click on RUN to see!,ind0,animation_slider,5,0.1,y,0.1000005999976
5fc0488da7ba234c771ef4b5,43818,r,Please indicate how likely you think the shown events will occur. Click on RUN to see!,ind0,animation_slider,5,0.16,none,0.16000035999856
5fc0488da7ba234c771ef4b5,47668,ry,Please indicate how likely you think the shown events will occur. Click on RUN to see!,ac0,animation_slider,6,0.68,ry,0.67999828000688
5fc0488da7ba234c771ef4b5,47668,ry,Please indicate how likely you think the shown events will occur. Click on RUN to see!,ac0,animation_slider,6,0.24,r,0.24000003999983996
5fc0488da7ba234c771ef4b5,47668,ry,Please indicate how likely you think the shown events will occur. Click on RUN to see!,ac0,animation_slider,6,0.06,y,0.06000075999696
5fc0488da7ba234c771ef4b5,47668,ry,Please indicate how likely you think the shown events will occur. Click on RUN to see!,ac0,animation_slider,6,0.02,none,0.020000919996320015
5fc0488da7ba234c771ef4b5,67332,y,Please indicate how likely you think the shown events will occur. Click on RUN to see!,ac1,animation_slider,7,0.4,ry,0.3999994000023999
5fc0488da7ba234c771ef4b5,67332,y,Please indicate how likely you think the shown events will occur. Click on RUN to see!,ac1,animation_slider,7,0.01,r,0.010000959996160014
5fc0488da7ba234c771ef4b5,67332,y,Please indicate how likely you think the shown events will occur. Click on RUN to see!,ac1,animation_slider,7,0.56,y,0.55999876000496
5fc0488da7ba234c771ef4b5,67332,y,Please indicate how likely you think the shown events will occur. Click on RUN to see!,ac1,animation_slider,7,0.03,none,0.03000087999648001
5fc0488da7ba234c771ef4b5,51355,ry,Please indicate how likely you think the shown events will occur. Click on RUN to see!,ac2,animation_slider,8,0.18,ry,0.18181845729916243
5fc0488da7ba234c771ef4b5,51355,ry,Please indicate how likely you think the shown events will occur. Click on RUN to see!,ac2,animation_slider,8,0.37,r,0.37373687379040893
5fc0488da7ba234c771ef4b5,51355,ry,Please indicate how likely you think the shown events will occur. Click on RUN to see!,ac2,animation_slider,8,0,y,1.0100969289012974e-6
5fc0488da7ba234c771ef4b5,51355,ry,Please indicate how likely you think the shown events will occur. Click on RUN to see!,ac2,animation_slider,8,0.44,none,0.4444436588134998
5fc0488da7ba234c771ef4b5,44983,y,Please indicate how likely you think the shown events will occur. Click on RUN to see!,uncertain0,animation_slider,9,0.25,ry,0.25
5fc0488da7ba234c771ef4b5,44983,y,Please indicate how likely you think the shown events will occur. Click on RUN to see!,uncertain0,animation_slider,9,0.25,r,0.25
5fc0488da7ba234c771ef4b5,44983,y,Please indicate how likely you think the shown events will occur. Click on RUN to see!,uncertain0,animation_slider,9,0.25,y,0.25
5fc0488da7ba234c771ef4b5,44983,y,Please indicate how likely you think the shown events will occur. Click on RUN to see!,uncertain0,animation_slider,9,0.25,none,0.25
5fc0488da7ba234c771ef4b5,39415,none,Please indicate how likely you think the shown events will occur. Click on RUN to see!,ssw1,animation_slider,10,0.14,ry,0.14141458014311054
5fc0488da7ba234c771ef4b5,39415,none,Please indicate how likely you think the shown events will occur. Click on RUN to see!,ssw1,animation_slider,10,0.49,r,0.4949485052585646
5fc0488da7ba234c771ef4b5,39415,none,Please indicate how likely you think the shown events will occur. Click on RUN to see!,ssw1,animation_slider,10,0.04,y,0.040404887252980796
5fc0488da7ba234c771ef4b5,39415,none,Please indicate how likely you think the shown events will occur. Click on RUN to see!,ssw1,animation_slider,10,0.32,none,0.32323202734534406
5fc0488da7ba234c771ef4b5,49639,ry,Please indicate how likely you think the shown events will occur. Click on RUN to see!,ind1,animation_slider,11,0.41,ry,0.40999936000256
5fc0488da7ba234c771ef4b5,49639,ry,Please indicate how likely you think the shown events will occur. Click on RUN to see!,ind1,animation_slider,11,0.41,r,0.40999936000256
5fc0488da7ba234c771ef4b5,49639,ry,Please indicate how likely you think the shown events will occur. Click on RUN to see!,ind1,animation_slider,11,0.09,y,0.09000063999744001
5fc0488da7ba234c771ef4b5,49639,ry,Please indicate how likely you think the shown events will occur. Click on RUN to see!,ind1,animation_slider,11,0.09,none,0.09000063999744001
5fc0488da7ba234c771ef4b5,42285,none,Please indicate how likely you think the shown events will occur. Click on RUN to see!,ac3,animation_slider,12,0.33,ry,0.333332996634357
5fc0488da7ba234c771ef4b5,42285,none,Please indicate how likely you think the shown events will occur. Click on RUN to see!,ac3,animation_slider,12,0,r,1.0100969289012974e-6
5fc0488da7ba234c771ef4b5,42285,none,Please indicate how likely you think the shown events will occur. Click on RUN to see!,ac3,animation_slider,12,0.33,y,0.333332996634357
5fc0488da7ba234c771ef4b5,42285,none,Please indicate how likely you think the shown events will occur. Click on RUN to see!,ac3,animation_slider,12,0.33,none,0.333332996634357
5fc0488da7ba234c771ef4b5,34355,ry,Please indicate how likely you think the shown events will occur. Click on RUN to see!,ssw0,animation_slider,13,0.25,ry,0.25
5fc0488da7ba234c771ef4b5,34355,ry,Please indicate how likely you think the shown events will occur. Click on RUN to see!,ssw0,animation_slider,13,0.25,r,0.25
5fc0488da7ba234c771ef4b5,34355,ry,Please indicate how likely you think the shown events will occur. Click on RUN to see!,ssw0,animation_slider,13,0.25,y,0.25
5fc0488da7ba234c771ef4b5,34355,ry,Please indicate how likely you think the shown events will occur. Click on RUN to see!,ssw0,animation_slider,13,0.25,none,0.25
5fc0488da7ba234c771ef4b5,16964,r,Please indicate how likely you think the shown events will occur. Click on RUN to see!,uncertain2,animation_slider,14,0.25,ry,0.25
5fc0488da7ba234c771ef4b5,16964,r,Please indicate how likely you think the shown events will occur. Click on RUN to see!,uncertain2,animation_slider,14,0.25,r,0.25
5fc0488da7ba234c771ef4b5,16964,r,Please indicate how likely you think the shown events will occur. Click on RUN to see!,uncertain2,animation_slider,14,0.25,y,0.25
5fc0488da7ba234c771ef4b5,16964,r,Please indicate how likely you think the shown events will occur. Click on RUN to see!,uncertain2,animation_slider,14,0.25,none,0.25
5e1f0f5628b7b62348f7ba3e,108274,y,Please indicate how likely you think the shown events will occur. Click on RUN to see!,uncertain3,animation_slider,1,0.5,ry,0.49999900000399994
5e1f0f5628b7b62348f7ba3e,108274,y,Please indicate how likely you think the shown events will occur. Click on RUN to see!,uncertain3,animation_slider,1,0,r,9.999960000159999e-7
5e1f0f5628b7b62348f7ba3e,108274,y,Please indicate how likely you think the shown events will occur. Click on RUN to see!,uncertain3,animation_slider,1,0,y,9.999960000159999e-7
5e1f0f5628b7b62348f7ba3e,108274,y,Please indicate how likely you think the shown events will occur. Click on RUN to see!,uncertain3,animation_slider,1,0.5,none,0.49999900000399994
5e1f0f5628b7b62348f7ba3e,108200,r,Please indicate how likely you think the shown events will occur. Click on RUN to see!,uncertain1,animation_slider,2,0.1,ry,0.1000005999976
5e1f0f5628b7b62348f7ba3e,108200,r,Please indicate how likely you think the shown events will occur. Click on RUN to see!,uncertain1,animation_slider,2,0.9,r,0.8999974000103999
5e1f0f5628b7b62348f7ba3e,108200,r,Please indicate how likely you think the shown events will occur. Click on RUN to see!,uncertain1,animation_slider,2,0,y,9.999960000159999e-7
5e1f0f5628b7b62348f7ba3e,108200,r,Please indicate how likely you think the shown events will occur. Click on RUN to see!,uncertain1,animation_slider,2,0,none,9.999960000159999e-7
5e1f0f5628b7b62348f7ba3e,57220,r,Please indicate how likely you think the shown events will occur. Click on RUN to see!,distance0,animation_slider,3,0,ry,9.99996000016e-7
5e1f0f5628b7b62348f7ba3e,57220,r,Please indicate how likely you think the shown events will occur. Click on RUN to see!,distance0,animation_slider,3,1,r,0.999997000012
5e1f0f5628b7b62348f7ba3e,57220,r,Please indicate how likely you think the shown events will occur. Click on RUN to see!,distance0,animation_slider,3,0,y,9.99996000016e-7
5e1f0f5628b7b62348f7ba3e,57220,r,Please indicate how likely you think the shown events will occur. Click on RUN to see!,distance0,animation_slider,3,0,none,9.99996000016e-7
5e1f0f5628b7b62348f7ba3e,48321,y,Please indicate how likely you think the shown events will occur. Click on RUN to see!,distance1,animation_slider,4,1,ry,0.999997000012
5e1f0f5628b7b62348f7ba3e,48321,y,Please indicate how likely you think the shown events will occur. Click on RUN to see!,distance1,animation_slider,4,0,r,9.99996000016e-7
5e1f0f5628b7b62348f7ba3e,48321,y,Please indicate how likely you think the shown events will occur. Click on RUN to see!,distance1,animation_slider,4,0,y,9.99996000016e-7
5e1f0f5628b7b62348f7ba3e,48321,y,Please indicate how likely you think the shown events will occur. Click on RUN to see!,distance1,animation_slider,4,0,none,9.99996000016e-7
5e1f0f5628b7b62348f7ba3e,127242,none,Please indicate how likely you think the shown events will occur. Click on RUN to see!,ac3,animation_slider,5,0.51,ry,0.5099989600041601
5e1f0f5628b7b62348f7ba3e,127242,none,Please indicate how likely you think the shown events will occur. Click on RUN to see!,ac3,animation_slider,5,0.49,r,0.48999904000384
5e1f0f5628b7b62348f7ba3e,127242,none,Please indicate how likely you think the shown events will occur. Click on RUN to see!,ac3,animation_slider,5,0,y,9.99996000016e-7
5e1f0f5628b7b62348f7ba3e,127242,none,Please indicate how likely you think the shown events will occur. Click on RUN to see!,ac3,animation_slider,5,0,none,9.99996000016e-7
5e1f0f5628b7b62348f7ba3e,42112,ry,Please indicate how likely you think the shown events will occur. Click on RUN to see!,ind1,animation_slider,6,0,ry,9.99996000016e-7
5e1f0f5628b7b62348f7ba3e,42112,ry,Please indicate how likely you think the shown events will occur. Click on RUN to see!,ind1,animation_slider,6,1,r,0.999997000012
5e1f0f5628b7b62348f7ba3e,42112,ry,Please indicate how likely you think the shown events will occur. Click on RUN to see!,ind1,animation_slider,6,0,y,9.99996000016e-7
5e1f0f5628b7b62348f7ba3e,42112,ry,Please indicate how likely you think the shown events will occur. Click on RUN to see!,ind1,animation_slider,6,0,none,9.99996000016e-7
5e1f0f5628b7b62348f7ba3e,51649,y,Please indicate how likely you think the shown events will occur. Click on RUN to see!,ac1,animation_slider,7,0.9,ry,0.8999974000103999
5e1f0f5628b7b62348f7ba3e,51649,y,Please indicate how likely you think the shown events will occur. Click on RUN to see!,ac1,animation_slider,7,0.1,r,0.1000005999976
5e1f0f5628b7b62348f7ba3e,51649,y,Please indicate how likely you think the shown events will occur. Click on RUN to see!,ac1,animation_slider,7,0,y,9.999960000159999e-7
5e1f0f5628b7b62348f7ba3e,51649,y,Please indicate how likely you think the shown events will occur. Click on RUN to see!,ac1,animation_slider,7,0,none,9.999960000159999e-7
5e1f0f5628b7b62348f7ba3e,51683,ry,Please indicate how likely you think the shown events will occur. Click on RUN to see!,ac2,animation_slider,8,0.17,ry,0.17000031999872003
5e1f0f5628b7b62348f7ba3e,51683,ry,Please indicate how likely you think the shown events will occur. Click on RUN to see!,ac2,animation_slider,8,0,r,9.99996000016e-7
5e1f0f5628b7b62348f7ba3e,51683,ry,Please indicate how likely you think the shown events will occur. Click on RUN to see!,ac2,animation_slider,8,0.83,y,0.8299976800092801
5e1f0f5628b7b62348f7ba3e,51683,ry,Please indicate how likely you think the shown events will occur. Click on RUN to see!,ac2,animation_slider,8,0,none,9.99996000016e-7
5e1f0f5628b7b62348f7ba3e,24461,y,Please indicate how likely you think the shown events will occur. Click on RUN to see!,uncertain0,animation_slider,9,1,ry,0.999997000012
5e1f0f5628b7b62348f7ba3e,24461,y,Please indicate how likely you think the shown events will occur. Click on RUN to see!,uncertain0,animation_slider,9,0,r,9.99996000016e-7
5e1f0f5628b7b62348f7ba3e,24461,y,Please indicate how likely you think the shown events will occur. Click on RUN to see!,uncertain0,animation_slider,9,0,y,9.99996000016e-7
5e1f0f5628b7b62348f7ba3e,24461,y,Please indicate how likely you think the shown events will occur. Click on RUN to see!,uncertain0,animation_slider,9,0,none,9.99996000016e-7
5e1f0f5628b7b62348f7ba3e,39761,none,Please indicate how likely you think the shown events will occur. Click on RUN to see!,ssw1,animation_slider,10,0,ry,9.99996000016e-7
5e1f0f5628b7b62348f7ba3e,39761,none,Please indicate how likely you think the shown events will occur. Click on RUN to see!,ssw1,animation_slider,10,1,r,0.999997000012
5e1f0f5628b7b62348f7ba3e,39761,none,Please indicate how likely you think the shown events will occur. Click on RUN to see!,ssw1,animation_slider,10,0,y,9.99996000016e-7
5e1f0f5628b7b62348f7ba3e,39761,none,Please indicate how likely you think the shown events will occur. Click on RUN to see!,ssw1,animation_slider,10,0,none,9.99996000016e-7
5e1f0f5628b7b62348f7ba3e,26973,ry,Please indicate how likely you think the shown events will occur. Click on RUN to see!,ssw0,animation_slider,11,0,ry,9.99996000016e-7
5e1f0f5628b7b62348f7ba3e,26973,ry,Please indicate how likely you think the shown events will occur. Click on RUN to see!,ssw0,animation_slider,11,0,r,9.99996000016e-7
5e1f0f5628b7b62348f7ba3e,26973,ry,Please indicate how likely you think the shown events will occur. Click on RUN to see!,ssw0,animation_slider,11,1,y,0.999997000012
5e1f0f5628b7b62348f7ba3e,26973,ry,Please indicate how likely you think the shown events will occur. Click on RUN to see!,ssw0,animation_slider,11,0,none,9.99996000016e-7
5e1f0f5628b7b62348f7ba3e,30482,r,Please indicate how likely you think the shown events will occur. Click on RUN to see!,ind0,animation_slider,12,0,ry,9.99996000016e-7
5e1f0f5628b7b62348f7ba3e,30482,r,Please indicate how likely you think the shown events will occur. Click on RUN to see!,ind0,animation_slider,12,1,r,0.999997000012
5e1f0f5628b7b62348f7ba3e,30482,r,Please indicate how likely you think the shown events will occur. Click on RUN to see!,ind0,animation_slider,12,0,y,9.99996000016e-7
5e1f0f5628b7b62348f7ba3e,30482,r,Please indicate how likely you think the shown events will occur. Click on RUN to see!,ind0,animation_slider,12,0,none,9.99996000016e-7
5e1f0f5628b7b62348f7ba3e,31739,ry,Please indicate how likely you think the shown events will occur. Click on RUN to see!,ac0,animation_slider,13,1,ry,0.999997000012
5e1f0f5628b7b62348f7ba3e,31739,ry,Please indicate how likely you think the shown events will occur. Click on RUN to see!,ac0,animation_slider,13,0,r,9.99996000016e-7
5e1f0f5628b7b62348f7ba3e,31739,ry,Please indicate how likely you think the shown events will occur. Click on RUN to see!,ac0,animation_slider,13,0,y,9.99996000016e-7
5e1f0f5628b7b62348f7ba3e,31739,ry,Please indicate how likely you think the shown events will occur. Click on RUN to see!,ac0,animation_slider,13,0,none,9.99996000016e-7
5e1f0f5628b7b62348f7ba3e,54599,r,Please indicate how likely you think the shown events will occur. Click on RUN to see!,uncertain2,animation_slider,14,0.75,ry,0.7499980000080001
5e1f0f5628b7b62348f7ba3e,54599,r,Please indicate how likely you think the shown events will occur. Click on RUN to see!,uncertain2,animation_slider,14,0,r,9.99996000016e-7
5e1f0f5628b7b62348f7ba3e,54599,r,Please indicate how likely you think the shown events will occur. Click on RUN to see!,uncertain2,animation_slider,14,0.25,y,0.25
5e1f0f5628b7b62348f7ba3e,54599,r,Please indicate how likely you think the shown events will occur. Click on RUN to see!,uncertain2,animation_slider,14,0,none,9.99996000016e-7
5f306667868c4611c0f396f8,98845,y,Please indicate how likely you think the shown events will occur. Click on RUN to see!,uncertain3,animation_slider,1,0.47,ry,0.4747465666805386
5f306667868c4611c0f396f8,98845,y,Please indicate how likely you think the shown events will occur. Click on RUN to see!,uncertain3,animation_slider,1,0.04,r,0.040404887252980796
5f306667868c4611c0f396f8,98845,y,Please indicate how likely you think the shown events will occur. Click on RUN to see!,uncertain3,animation_slider,1,0.46,y,0.46464559739152567
5f306667868c4611c0f396f8,98845,y,Please indicate how likely you think the shown events will occur. Click on RUN to see!,uncertain3,animation_slider,1,0.02,none,0.02020294867495485
5f306667868c4611c0f396f8,63694,r,Please indicate how likely you think the shown events will occur. Click on RUN to see!,uncertain1,animation_slider,2,0.5,ry,0.49999900000399994
5f306667868c4611c0f396f8,63694,r,Please indicate how likely you think the shown events will occur. Click on RUN to see!,uncertain1,animation_slider,2,0.29,r,0.28999984000063994
5f306667868c4611c0f396f8,63694,r,Please indicate how likely you think the shown events will occur. Click on RUN to see!,uncertain1,animation_slider,2,0.14,y,0.14000043999824
5f306667868c4611c0f396f8,63694,r,Please indicate how likely you think the shown events will occur. Click on RUN to see!,uncertain1,animation_slider,2,0.07,none,0.07000071999712001
5f306667868c4611c0f396f8,65307,y,Please indicate how likely you think the shown events will occur. Click on RUN to see!,distance1,animation_slider,3,0.14,ry,0.14000043999824
5f306667868c4611c0f396f8,65307,y,Please indicate how likely you think the shown events will occur. Click on RUN to see!,distance1,animation_slider,3,0,r,9.999960000159999e-7
5f306667868c4611c0f396f8,65307,y,Please indicate how likely you think the shown events will occur. Click on RUN to see!,distance1,animation_slider,3,0.55,y,0.5499988000048
5f306667868c4611c0f396f8,65307,y,Please indicate how likely you think the shown events will occur. Click on RUN to see!,distance1,animation_slider,3,0.31,none,0.3099997600009599
5f306667868c4611c0f396f8,74430,r,Please indicate how likely you think the shown events will occur. Click on RUN to see!,distance0,animation_slider,4,0.1,ry,0.1000005999976
5f306667868c4611c0f396f8,74430,r,Please indicate how likely you think the shown events will occur. Click on RUN to see!,distance0,animation_slider,4,0.61,r,0.6099985600057599
5f306667868c4611c0f396f8,74430,r,Please indicate how likely you think the shown events will occur. Click on RUN to see!,distance0,animation_slider,4,0.1,y,0.1000005999976
5f306667868c4611c0f396f8,74430,r,Please indicate how likely you think the shown events will occur. Click on RUN to see!,distance0,animation_slider,4,0.19,none,0.19000023999903998
5f306667868c4611c0f396f8,116047,y,Please indicate how likely you think the shown events will occur. Click on RUN to see!,ac1,animation_slider,5,0.83,ry,0.8299976800092801
5f306667868c4611c0f396f8,116047,y,Please indicate how likely you think the shown events will occur. Click on RUN to see!,ac1,animation_slider,5,0.15,r,0.1500003999984
5f306667868c4611c0f396f8,116047,y,Please indicate how likely you think the shown events will occur. Click on RUN to see!,ac1,animation_slider,5,0.02,y,0.02000091999632002
5f306667868c4611c0f396f8,116047,y,Please indicate how likely you think the shown events will occur. Click on RUN to see!,ac1,animation_slider,5,0,none,9.99996000016e-7
5f306667868c4611c0f396f8,83808,ry,Please indicate how likely you think the shown events will occur. Click on RUN to see!,ind1,animation_slider,6,0.15,ry,0.1500003999984
5f306667868c4611c0f396f8,83808,ry,Please indicate how likely you think the shown events will occur. Click on RUN to see!,ind1,animation_slider,6,0.37,r,0.36999952000192
5f306667868c4611c0f396f8,83808,ry,Please indicate how likely you think the shown events will occur. Click on RUN to see!,ind1,animation_slider,6,0.48,y,0.47999908000367997
5f306667868c4611c0f396f8,83808,ry,Please indicate how likely you think the shown events will occur. Click on RUN to see!,ind1,animation_slider,6,0,none,9.99996000016e-7
5f306667868c4611c0f396f8,92017,none,Please indicate how likely you think the shown events will occur. Click on RUN to see!,ssw1,animation_slider,7,0.4,ry,0.39999940000240003
5f306667868c4611c0f396f8,92017,none,Please indicate how likely you think the shown events will occur. Click on RUN to see!,ssw1,animation_slider,7,0.35,r,0.34999960000159996
5f306667868c4611c0f396f8,92017,none,Please indicate how likely you think the shown events will occur. Click on RUN to see!,ssw1,animation_slider,7,0.25,y,0.25
5f306667868c4611c0f396f8,92017,none,Please indicate how likely you think the shown events will occur. Click on RUN to see!,ssw1,animation_slider,7,0,none,9.99996000016e-7
5f306667868c4611c0f396f8,79007,ry,Please indicate how likely you think the shown events will occur. Click on RUN to see!,ac2,animation_slider,8,0.16,ry,0.16000035999856
5f306667868c4611c0f396f8,79007,ry,Please indicate how likely you think the shown events will occur. Click on RUN to see!,ac2,animation_slider,8,0.65,r,0.6499984000064
5f306667868c4611c0f396f8,79007,ry,Please indicate how likely you think the shown events will occur. Click on RUN to see!,ac2,animation_slider,8,0.16,y,0.16000035999856
5f306667868c4611c0f396f8,79007,ry,Please indicate how likely you think the shown events will occur. Click on RUN to see!,ac2,animation_slider,8,0.03,none,0.03000087999648001
5f306667868c4611c0f396f8,58628,y,Please indicate how likely you think the shown events will occur. Click on RUN to see!,uncertain0,animation_slider,9,0.67,ry,0.6633646995457444
5f306667868c4611c0f396f8,58628,y,Please indicate how likely you think the shown events will occur. Click on RUN to see!,uncertain0,animation_slider,9,0.17,r,0.16831715517958343
5f306667868c4611c0f396f8,58628,y,Please indicate how likely you think the shown events will occur. Click on RUN to see!,uncertain0,animation_slider,9,0.17,y,0.16831715517958343
5f306667868c4611c0f396f8,58628,y,Please indicate how likely you think the shown events will occur. Click on RUN to see!,uncertain0,animation_slider,9,0,none,9.900950887323216e-7
5f306667868c4611c0f396f8,103738,r,Please indicate how likely you think the shown events will occur. Click on RUN to see!,ind0,animation_slider,10,0.7,ry,0.6999982000072
5f306667868c4611c0f396f8,103738,r,Please indicate how likely you think the shown events will occur. Click on RUN to see!,ind0,animation_slider,10,0,r,9.99996000016e-7
5f306667868c4611c0f396f8,103738,r,Please indicate how likely you think the shown events will occur. Click on RUN to see!,ind0,animation_slider,10,0.3,y,0.2999998000008
5f306667868c4611c0f396f8,103738,r,Please indicate how likely you think the shown events will occur. Click on RUN to see!,ind0,animation_slider,10,0,none,9.99996000016e-7
5f306667868c4611c0f396f8,81035,ry,Please indicate how likely you think the shown events will occur. Click on RUN to see!,ssw0,animation_slider,11,0.14,ry,0.14141458014311054
5f306667868c4611c0f396f8,81035,ry,Please indicate how likely you think the shown events will occur. Click on RUN to see!,ssw0,animation_slider,11,0.43,r,0.43434268952448674
5f306667868c4611c0f396f8,81035,ry,Please indicate how likely you think the shown events will occur. Click on RUN to see!,ssw0,animation_slider,11,0.28,y,0.2828281501892922
5f306667868c4611c0f396f8,81035,ry,Please indicate how likely you think the shown events will occur. Click on RUN to see!,ssw0,animation_slider,11,0.14,none,0.14141458014311054
5f306667868c4611c0f396f8,86988,none,Please indicate how likely you think the shown events will occur. Click on RUN to see!,ac3,animation_slider,12,0.18,ry,0.17821810606690663
5f306667868c4611c0f396f8,86988,none,Please indicate how likely you think the shown events will occur. Click on RUN to see!,ac3,animation_slider,12,0.18,r,0.17821810606690663
5f306667868c4611c0f396f8,86988,none,Please indicate how likely you think the shown events will occur. Click on RUN to see!,ac3,animation_slider,12,0.65,y,0.6435627977710979
5f306667868c4611c0f396f8,86988,none,Please indicate how likely you think the shown events will occur. Click on RUN to see!,ac3,animation_slider,12,0,none,9.900950887323216e-7
5f306667868c4611c0f396f8,77013,ry,Please indicate how likely you think the shown events will occur. Click on RUN to see!,ac0,animation_slider,13,0.22,ry,0.22222233445521433
5f306667868c4611c0f396f8,77013,ry,Please indicate how likely you think the shown events will occur. Click on RUN to see!,ac0,animation_slider,13,0.51,r,0.5151504438365906
5f306667868c4611c0f396f8,77013,ry,Please indicate how likely you think the shown events will occur. Click on RUN to see!,ac0,animation_slider,13,0.22,y,0.22222233445521433
5f306667868c4611c0f396f8,77013,ry,Please indicate how likely you think the shown events will occur. Click on RUN to see!,ac0,animation_slider,13,0.04,none,0.040404887252980796
5f306667868c4611c0f396f8,74520,r,Please indicate how likely you think the shown events will occur. Click on RUN to see!,uncertain2,animation_slider,14,0.61,ry,0.6099985600057599
5f306667868c4611c0f396f8,74520,r,Please indicate how likely you think the shown events will occur. Click on RUN to see!,uncertain2,animation_slider,14,0.28,r,0.27999988000048
5f306667868c4611c0f396f8,74520,r,Please indicate how likely you think the shown events will occur. Click on RUN to see!,uncertain2,animation_slider,14,0.11,y,0.11000055999776
5f306667868c4611c0f396f8,74520,r,Please indicate how likely you think the shown events will occur. Click on RUN to see!,uncertain2,animation_slider,14,0,none,9.999960000159999e-7
5f29eff59714081a3594a331,110271,y,Please indicate how likely you think the shown events will occur. Click on RUN to see!,uncertain3,animation_slider,1,0.32,ry,0.31999972000112004
5f29eff59714081a3594a331,110271,y,Please indicate how likely you think the shown events will occur. Click on RUN to see!,uncertain3,animation_slider,1,0.18,r,0.18000027999888002
5f29eff59714081a3594a331,110271,y,Please indicate how likely you think the shown events will occur. Click on RUN to see!,uncertain3,animation_slider,1,0.17,y,0.17000031999872003
5f29eff59714081a3594a331,110271,y,Please indicate how likely you think the shown events will occur. Click on RUN to see!,uncertain3,animation_slider,1,0.33,none,0.32999968000128
5f29eff59714081a3594a331,31741,r,Please indicate how likely you think the shown events will occur. Click on RUN to see!,uncertain1,animation_slider,2,0.37,ry,0.36999952000192
5f29eff59714081a3594a331,31741,r,Please indicate how likely you think the shown events will occur. Click on RUN to see!,uncertain1,animation_slider,2,0.25,r,0.25
5f29eff59714081a3594a331,31741,r,Please indicate how likely you think the shown events will occur. Click on RUN to see!,uncertain1,animation_slider,2,0.22,y,0.22000011999952002
5f29eff59714081a3594a331,31741,r,Please indicate how likely you think the shown events will occur. Click on RUN to see!,uncertain1,animation_slider,2,0.16,none,0.16000035999856002
5f29eff59714081a3594a331,32611,r,Please indicate how likely you think the shown events will occur. Click on RUN to see!,distance0,animation_slider,3,0.36,ry,0.35999956000176
5f29eff59714081a3594a331,32611,r,Please indicate how likely you think the shown events will occur. Click on RUN to see!,distance0,animation_slider,3,0.16,r,0.16000035999856002
5f29eff59714081a3594a331,32611,r,Please indicate how likely you think the shown events will occur. Click on RUN to see!,distance0,animation_slider,3,0.12,y,0.12000051999792002
5f29eff59714081a3594a331,32611,r,Please indicate how likely you think the shown events will occur. Click on RUN to see!,distance0,animation_slider,3,0.36,none,0.35999956000176
5f29eff59714081a3594a331,43236,y,Please indicate how likely you think the shown events will occur. Click on RUN to see!,distance1,animation_slider,4,0.37,ry,0.36999952000191993
5f29eff59714081a3594a331,43236,y,Please indicate how likely you think the shown events will occur. Click on RUN to see!,distance1,animation_slider,4,0.23,r,0.23000007999967997
5f29eff59714081a3594a331,43236,y,Please indicate how likely you think the shown events will occur. Click on RUN to see!,distance1,animation_slider,4,0.23,y,0.23000007999967997
5f29eff59714081a3594a331,43236,y,Please indicate how likely you think the shown events will occur. Click on RUN to see!,distance1,animation_slider,4,0.17,none,0.17000031999872
5f29eff59714081a3594a331,58843,none,Please indicate how likely you think the shown events will occur. Click on RUN to see!,ssw1,animation_slider,5,0.33,ry,0.32999968000128
5f29eff59714081a3594a331,58843,none,Please indicate how likely you think the shown events will occur. Click on RUN to see!,ssw1,animation_slider,5,0.03,r,0.030000879996480018
5f29eff59714081a3594a331,58843,none,Please indicate how likely you think the shown events will occur. Click on RUN to see!,ssw1,animation_slider,5,0.32,y,0.31999972000112004
5f29eff59714081a3594a331,58843,none,Please indicate how likely you think the shown events will occur. Click on RUN to see!,ssw1,animation_slider,5,0.32,none,0.31999972000112004
5f29eff59714081a3594a331,33294,ry,Please indicate how likely you think the shown events will occur. Click on RUN to see!,ind1,animation_slider,6,0.04,ry,0.04000083999664002
5f29eff59714081a3594a331,33294,ry,Please indicate how likely you think the shown events will occur. Click on RUN to see!,ind1,animation_slider,6,0.09,r,0.09000063999744001
5f29eff59714081a3594a331,33294,ry,Please indicate how likely you think the shown events will occur. Click on RUN to see!,ind1,animation_slider,6,0.59,y,0.58999864000544
5f29eff59714081a3594a331,33294,ry,Please indicate how likely you think the shown events will occur. Click on RUN to see!,ind1,animation_slider,6,0.28,none,0.27999988000048004
5f29eff59714081a3594a331,34925,none,Please indicate how likely you think the shown events will occur. Click on RUN to see!,ac3,animation_slider,7,0.28,ry,0.27999988000048004
5f29eff59714081a3594a331,34925,none,Please indicate how likely you think the shown events will occur. Click on RUN to see!,ac3,animation_slider,7,0.24,r,0.24000003999984001
5f29eff59714081a3594a331,34925,none,Please indicate how likely you think the shown events will occur. Click on RUN to see!,ac3,animation_slider,7,0.15,y,0.1500003999984
5f29eff59714081a3594a331,34925,none,Please indicate how likely you think the shown events will occur. Click on RUN to see!,ac3,animation_slider,7,0.33,none,0.32999968000128
5f29eff59714081a3594a331,37416,ry,Please indicate how likely you think the shown events will occur. Click on RUN to see!,ac0,animation_slider,8,0.31,ry,0.30999976000096
5f29eff59714081a3594a331,37416,ry,Please indicate how likely you think the shown events will occur. Click on RUN to see!,ac0,animation_slider,8,0.26,r,0.25999996000016
5f29eff59714081a3594a331,37416,ry,Please indicate how likely you think the shown events will occur. Click on RUN to see!,ac0,animation_slider,8,0.18,y,0.18000027999888002
5f29eff59714081a3594a331,37416,ry,Please indicate how likely you think the shown events will occur. Click on RUN to see!,ac0,animation_slider,8,0.25,none,0.25
5f29eff59714081a3594a331,48006,y,Please indicate how likely you think the shown events will occur. Click on RUN to see!,uncertain0,animation_slider,9,0.32,ry,0.31999972000112004
5f29eff59714081a3594a331,48006,y,Please indicate how likely you think the shown events will occur. Click on RUN to see!,uncertain0,animation_slider,9,0.24,r,0.24000003999984001
5f29eff59714081a3594a331,48006,y,Please indicate how likely you think the shown events will occur. Click on RUN to see!,uncertain0,animation_slider,9,0.19,y,0.19000023999904003
5f29eff59714081a3594a331,48006,y,Please indicate how likely you think the shown events will occur. Click on RUN to see!,uncertain0,animation_slider,9,0.25,none,0.25
5f29eff59714081a3594a331,31992,r,Please indicate how likely you think the shown events will occur. Click on RUN to see!,ind0,animation_slider,10,0.31,ry,0.30999976000096
5f29eff59714081a3594a331,31992,r,Please indicate how likely you think the shown events will occur. Click on RUN to see!,ind0,animation_slider,10,0.18,r,0.18000027999888002
5f29eff59714081a3594a331,31992,r,Please indicate how likely you think the shown events will occur. Click on RUN to see!,ind0,animation_slider,10,0.18,y,0.18000027999888002
5f29eff59714081a3594a331,31992,r,Please indicate how likely you think the shown events will occur. Click on RUN to see!,ind0,animation_slider,10,0.33,none,0.32999968000128
5f29eff59714081a3594a331,25277,ry,Please indicate how likely you think the shown events will occur. Click on RUN to see!,ssw0,animation_slider,11,0.35,ry,0.34999960000159996
5f29eff59714081a3594a331,25277,ry,Please indicate how likely you think the shown events will occur. Click on RUN to see!,ssw0,animation_slider,11,0.06,r,0.060000759996960015
5f29eff59714081a3594a331,25277,ry,Please indicate how likely you think the shown events will occur. Click on RUN to see!,ssw0,animation_slider,11,0.08,y,0.08000067999728003
5f29eff59714081a3594a331,25277,ry,Please indicate how likely you think the shown events will occur. Click on RUN to see!,ssw0,animation_slider,11,0.51,none,0.5099989600041601
5f29eff59714081a3594a331,26687,y,Please indicate how likely you think the shown events will occur. Click on RUN to see!,ac1,animation_slider,12,0.38,ry,0.3838378430794219
5f29eff59714081a3594a331,26687,y,Please indicate how likely you think the shown events will occur. Click on RUN to see!,ac1,animation_slider,12,0.15,r,0.15151554943212353
5f29eff59714081a3594a331,26687,y,Please indicate how likely you think the shown events will occur. Click on RUN to see!,ac1,animation_slider,12,0.04,y,0.0404048872529808
5f29eff59714081a3594a331,26687,y,Please indicate how likely you think the shown events will occur. Click on RUN to see!,ac1,animation_slider,12,0.42,none,0.4242417202354738
5f29eff59714081a3594a331,27495,ry,Please indicate how likely you think the shown events will occur. Click on RUN to see!,ac2,animation_slider,13,0.32,ry,0.31999972000112004
5f29eff59714081a3594a331,27495,ry,Please indicate how likely you think the shown events will occur. Click on RUN to see!,ac2,animation_slider,13,0.19,r,0.19000023999904003
5f29eff59714081a3594a331,27495,ry,Please indicate how likely you think the shown events will occur. Click on RUN to see!,ac2,animation_slider,13,0.17,y,0.17000031999872003
5f29eff59714081a3594a331,27495,ry,Please indicate how likely you think the shown events will occur. Click on RUN to see!,ac2,animation_slider,13,0.32,none,0.31999972000112004
5f29eff59714081a3594a331,29491,r,Please indicate how likely you think the shown events will occur. Click on RUN to see!,uncertain2,animation_slider,14,0.35,ry,0.34999960000159996
5f29eff59714081a3594a331,29491,r,Please indicate how likely you think the shown events will occur. Click on RUN to see!,uncertain2,animation_slider,14,0.14,r,0.14000043999824002
5f29eff59714081a3594a331,29491,r,Please indicate how likely you think the shown events will occur. Click on RUN to see!,uncertain2,animation_slider,14,0.16,y,0.16000035999856002
5f29eff59714081a3594a331,29491,r,Please indicate how likely you think the shown events will occur. Click on RUN to see!,uncertain2,animation_slider,14,0.35,none,0.34999960000159996
5f23a915346e5518152596ff,134513,y,Please indicate how likely you think the shown events will occur. Click on RUN to see!,uncertain3,animation_slider,1,0.31,ry,0.30999976000096
5f23a915346e5518152596ff,134513,y,Please indicate how likely you think the shown events will occur. Click on RUN to see!,uncertain3,animation_slider,1,0.3,r,0.2999998000008
5f23a915346e5518152596ff,134513,y,Please indicate how likely you think the shown events will occur. Click on RUN to see!,uncertain3,animation_slider,1,0.03,y,0.030000879996480018
5f23a915346e5518152596ff,134513,y,Please indicate how likely you think the shown events will occur. Click on RUN to see!,uncertain3,animation_slider,1,0.36,none,0.35999956000176
5f23a915346e5518152596ff,58287,r,Please indicate how likely you think the shown events will occur. Click on RUN to see!,uncertain1,animation_slider,2,0.43,ry,0.42999928000288
5f23a915346e5518152596ff,58287,r,Please indicate how likely you think the shown events will occur. Click on RUN to see!,uncertain1,animation_slider,2,0.43,r,0.42999928000288
5f23a915346e5518152596ff,58287,r,Please indicate how likely you think the shown events will occur. Click on RUN to see!,uncertain1,animation_slider,2,0.14,y,0.14000043999824002
5f23a915346e5518152596ff,58287,r,Please indicate how likely you think the shown events will occur. Click on RUN to see!,uncertain1,animation_slider,2,0,none,9.99996000016e-7
5f23a915346e5518152596ff,96024,y,Please indicate how likely you think the shown events will occur. Click on RUN to see!,distance1,animation_slider,3,0.29,ry,0.29292911947830513
5f23a915346e5518152596ff,96024,y,Please indicate how likely you think the shown events will occur. Click on RUN to see!,distance1,animation_slider,3,0.29,r,0.29292911947830513
5f23a915346e5518152596ff,96024,y,Please indicate how likely you think the shown events will occur. Click on RUN to see!,distance1,animation_slider,3,0.12,y,0.1212126415650846
5f23a915346e5518152596ff,96024,y,Please indicate how likely you think the shown events will occur. Click on RUN to see!,distance1,animation_slider,3,0.29,none,0.29292911947830513
5f23a915346e5518152596ff,73161,r,Please indicate how likely you think the shown events will occur. Click on RUN to see!,distance0,animation_slider,4,0.29,ry,0.28712856582746205
5f23a915346e5518152596ff,73161,r,Please indicate how likely you think the shown events will occur. Click on RUN to see!,distance0,animation_slider,4,0.29,r,0.28712856582746205
5f23a915346e5518152596ff,73161,r,Please indicate how likely you think the shown events will occur. Click on RUN to see!,distance0,animation_slider,4,0.14,y,0.1386143025176138
5f23a915346e5518152596ff,73161,r,Please indicate how likely you think the shown events will occur. Click on RUN to see!,distance0,animation_slider,4,0.29,none,0.28712856582746205
5f23a915346e5518152596ff,61036,none,Please indicate how likely you think the shown events will occur. Click on RUN to see!,ac3,animation_slider,5,0.51,ry,0.5099989600041601
5f23a915346e5518152596ff,61036,none,Please indicate how likely you think the shown events will occur. Click on RUN to see!,ac3,animation_slider,5,0.25,r,0.25
5f23a915346e5518152596ff,61036,none,Please indicate how likely you think the shown events will occur. Click on RUN to see!,ac3,animation_slider,5,0.24,y,0.24000003999984001
5f23a915346e5518152596ff,61036,none,Please indicate how likely you think the shown events will occur. Click on RUN to see!,ac3,animation_slider,5,0,none,9.99996000016e-7
5f23a915346e5518152596ff,80088,ry,Please indicate how likely you think the shown events will occur. Click on RUN to see!,ac0,animation_slider,6,0.31,ry,0.30999976000096
5f23a915346e5518152596ff,80088,ry,Please indicate how likely you think the shown events will occur. Click on RUN to see!,ac0,animation_slider,6,0.15,r,0.1500003999984
5f23a915346e5518152596ff,80088,ry,Please indicate how likely you think the shown events will occur. Click on RUN to see!,ac0,animation_slider,6,0.23,y,0.23000007999968003
5f23a915346e5518152596ff,80088,ry,Please indicate how likely you think the shown events will occur. Click on RUN to see!,ac0,animation_slider,6,0.31,none,0.30999976000096
5f23a915346e5518152596ff,89129,y,Please indicate how likely you think the shown events will occur. Click on RUN to see!,ac1,animation_slider,7,0.45,ry,0.44999920000320004
5f23a915346e5518152596ff,89129,y,Please indicate how likely you think the shown events will occur. Click on RUN to see!,ac1,animation_slider,7,0.28,r,0.27999988000048004
5f23a915346e5518152596ff,89129,y,Please indicate how likely you think the shown events will occur. Click on RUN to see!,ac1,animation_slider,7,0,y,9.99996000016e-7
5f23a915346e5518152596ff,89129,y,Please indicate how likely you think the shown events will occur. Click on RUN to see!,ac1,animation_slider,7,0.27,none,0.26999992000032
5f23a915346e5518152596ff,51818,ry,Please indicate how likely you think the shown events will occur. Click on RUN to see!,ind1,animation_slider,8,0.33,ry,0.333332996634357
5f23a915346e5518152596ff,51818,ry,Please indicate how likely you think the shown events will occur. Click on RUN to see!,ind1,animation_slider,8,0.33,r,0.333332996634357
5f23a915346e5518152596ff,51818,ry,Please indicate how likely you think the shown events will occur. Click on RUN to see!,ind1,animation_slider,8,0,y,1.0100969289012974e-6
5f23a915346e5518152596ff,51818,ry,Please indicate how likely you think the shown events will occur. Click on RUN to see!,ind1,animation_slider,8,0.33,none,0.333332996634357
5f23a915346e5518152596ff,68656,y,Please indicate how likely you think the shown events will occur. Click on RUN to see!,uncertain0,animation_slider,9,0.45,ry,0.44999920000320004
5f23a915346e5518152596ff,68656,y,Please indicate how likely you think the shown events will occur. Click on RUN to see!,uncertain0,animation_slider,9,0.04,r,0.04000083999664002
5f23a915346e5518152596ff,68656,y,Please indicate how likely you think the shown events will occur. Click on RUN to see!,uncertain0,animation_slider,9,0.06,y,0.060000759996960015
5f23a915346e5518152596ff,68656,y,Please indicate how likely you think the shown events will occur. Click on RUN to see!,uncertain0,animation_slider,9,0.45,none,0.44999920000320004
5f23a915346e5518152596ff,57480,none,Please indicate how likely you think the shown events will occur. Click on RUN to see!,ssw1,animation_slider,10,0.33,ry,0.333332996634357
5f23a915346e5518152596ff,57480,none,Please indicate how likely you think the shown events will occur. Click on RUN to see!,ssw1,animation_slider,10,0.33,r,0.333332996634357
5f23a915346e5518152596ff,57480,none,Please indicate how likely you think the shown events will occur. Click on RUN to see!,ssw1,animation_slider,10,0,y,1.0100969289012974e-6
5f23a915346e5518152596ff,57480,none,Please indicate how likely you think the shown events will occur. Click on RUN to see!,ssw1,animation_slider,10,0.33,none,0.333332996634357
5f23a915346e5518152596ff,57874,ry,Please indicate how likely you think the shown events will occur. Click on RUN to see!,ssw0,animation_slider,11,0.07,ry,0.07000071999712001
5f23a915346e5518152596ff,57874,ry,Please indicate how likely you think the shown events will occur. Click on RUN to see!,ssw0,animation_slider,11,0.07,r,0.07000071999712001
5f23a915346e5518152596ff,57874,ry,Please indicate how likely you think the shown events will occur. Click on RUN to see!,ssw0,animation_slider,11,0.33,y,0.32999968000127994
5f23a915346e5518152596ff,57874,ry,Please indicate how likely you think the shown events will occur. Click on RUN to see!,ssw0,animation_slider,11,0.53,none,0.5299988800044799
5f23a915346e5518152596ff,63105,r,Please indicate how likely you think the shown events will occur. Click on RUN to see!,ind0,animation_slider,12,0.49,ry,0.48999904000384
5f23a915346e5518152596ff,63105,r,Please indicate how likely you think the shown events will occur. Click on RUN to see!,ind0,animation_slider,12,0,r,9.99996000016e-7
5f23a915346e5518152596ff,63105,r,Please indicate how likely you think the shown events will occur. Click on RUN to see!,ind0,animation_slider,12,0,y,9.99996000016e-7
5f23a915346e5518152596ff,63105,r,Please indicate how likely you think the shown events will occur. Click on RUN to see!,ind0,animation_slider,12,0.51,none,0.5099989600041601
5f23a915346e5518152596ff,43058,ry,Please indicate how likely you think the shown events will occur. Click on RUN to see!,ac2,animation_slider,13,0.5,ry,0.49999900000399994
5f23a915346e5518152596ff,43058,ry,Please indicate how likely you think the shown events will occur. Click on RUN to see!,ac2,animation_slider,13,0.5,r,0.49999900000399994
5f23a915346e5518152596ff,43058,ry,Please indicate how likely you think the shown events will occur. Click on RUN to see!,ac2,animation_slider,13,0,y,9.999960000159999e-7
5f23a915346e5518152596ff,43058,ry,Please indicate how likely you think the shown events will occur. Click on RUN to see!,ac2,animation_slider,13,0,none,9.999960000159999e-7
5f23a915346e5518152596ff,54450,r,Please indicate how likely you think the shown events will occur. Click on RUN to see!,uncertain2,animation_slider,14,0.33,ry,0.333332996634357
5f23a915346e5518152596ff,54450,r,Please indicate how likely you think the shown events will occur. Click on RUN to see!,uncertain2,animation_slider,14,0.33,r,0.333332996634357
5f23a915346e5518152596ff,54450,r,Please indicate how likely you think the shown events will occur. Click on RUN to see!,uncertain2,animation_slider,14,0,y,1.0100969289012974e-6
5f23a915346e5518152596ff,54450,r,Please indicate how likely you think the shown events will occur. Click on RUN to see!,uncertain2,animation_slider,14,0.33,none,0.333332996634357
5ffa01eb7dfb43387a868196,106090,y,Please indicate how likely you think the shown events will occur. Click on RUN to see!,uncertain3,animation_slider,1,0.34,ry,0.33999964000144
5ffa01eb7dfb43387a868196,106090,y,Please indicate how likely you think the shown events will occur. Click on RUN to see!,uncertain3,animation_slider,1,0.08,r,0.08000067999728003
5ffa01eb7dfb43387a868196,106090,y,Please indicate how likely you think the shown events will occur. Click on RUN to see!,uncertain3,animation_slider,1,0.46,y,0.45999916000336005
5ffa01eb7dfb43387a868196,106090,y,Please indicate how likely you think the shown events will occur. Click on RUN to see!,uncertain3,animation_slider,1,0.12,none,0.12000051999792002
5ffa01eb7dfb43387a868196,61082,r,Please indicate how likely you think the shown events will occur. Click on RUN to see!,uncertain1,animation_slider,2,0.27,ry,0.26999992000032
5ffa01eb7dfb43387a868196,61082,r,Please indicate how likely you think the shown events will occur. Click on RUN to see!,uncertain1,animation_slider,2,0.16,r,0.16000035999856002
5ffa01eb7dfb43387a868196,61082,r,Please indicate how likely you think the shown events will occur. Click on RUN to see!,uncertain1,animation_slider,2,0.24,y,0.24000003999984001
5ffa01eb7dfb43387a868196,61082,r,Please indicate how likely you think the shown events will occur. Click on RUN to see!,uncertain1,animation_slider,2,0.33,none,0.32999968000128
5ffa01eb7dfb43387a868196,54656,y,Please indicate how likely you think the shown events will occur. Click on RUN to see!,distance1,animation_slider,3,0.29,ry,0.28999984000064
5ffa01eb7dfb43387a868196,54656,y,Please indicate how likely you think the shown events will occur. Click on RUN to see!,distance1,animation_slider,3,0.33,r,0.32999968000128
5ffa01eb7dfb43387a868196,54656,y,Please indicate how likely you think the shown events will occur. Click on RUN to see!,distance1,animation_slider,3,0.04,y,0.04000083999664002
5ffa01eb7dfb43387a868196,54656,y,Please indicate how likely you think the shown events will occur. Click on RUN to see!,distance1,animation_slider,3,0.34,none,0.33999964000144
5ffa01eb7dfb43387a868196,78212,r,Please indicate how likely you think the shown events will occur. Click on RUN to see!,distance0,animation_slider,4,0.36,ry,0.35999956000176
5ffa01eb7dfb43387a868196,78212,r,Please indicate how likely you think the shown events will occur. Click on RUN to see!,distance0,animation_slider,4,0.36,r,0.35999956000176
5ffa01eb7dfb43387a868196,78212,r,Please indicate how likely you think the shown events will occur. Click on RUN to see!,distance0,animation_slider,4,0.15,y,0.1500003999984
5ffa01eb7dfb43387a868196,78212,r,Please indicate how likely you think the shown events will occur. Click on RUN to see!,distance0,animation_slider,4,0.13,none,0.13000047999808004
5ffa01eb7dfb43387a868196,107056,none,Please indicate how likely you think the shown events will occur. Click on RUN to see!,ac3,animation_slider,5,0.5,ry,0.49999900000399994
5ffa01eb7dfb43387a868196,107056,none,Please indicate how likely you think the shown events will occur. Click on RUN to see!,ac3,animation_slider,5,0.1,r,0.1000005999976
