submission_id,question,response1,startDate,comment,experiment_id,group,question1,optionRight,response4,id,question_right_part,question4,option4,expected,correct_statement,option2,option3,option1,endTime,optionLeft,question_left_part,age,response,comments,response3,education,QUD,languages,prolific_id,RT,gender,trial_number,startTime,picture,cost,option7,question3,timeSpent,option5,question2,response2,option6,trial_name
1564,,NA,Wed Jan 27 2021 19:46:16 GMT-0600 (hora estándar central),NA,54,NA,NA,NA,NA,not-red-yellow,.,NA,both,ynr,NA,ynr,none,rny,1611801263365,NA,The icon represents the event that ,23,rny,"Gran prueba, pero las preguntas fueron un poco confusas",NA,Graduated College,What event does this icon represent?,spanish,6001ec0ca3b1a3187ac01f0c,80099,male,1,1611798377236,stimuli/img/icons/not-red-yellow.png,NA,NA,NA,48.10215,NA,NA,NA,NA,attention_check
1564,,NA,Wed Jan 27 2021 19:46:16 GMT-0600 (hora estándar central),NA,54,NA,NA,NA,NA,not-yellow-red,.,NA,none,rny,NA,both,ynr,rny,1611801263365,NA,The icon represents the event that ,23,ynr,"Gran prueba, pero las preguntas fueron un poco confusas",NA,Graduated College,What event does this icon represent?,spanish,6001ec0ca3b1a3187ac01f0c,11862,male,2,1611798377236,stimuli/img/icons/red-not-yellow.png,NA,NA,NA,48.10215,NA,NA,NA,NA,attention_check
1564,,NA,Wed Jan 27 2021 19:46:16 GMT-0600 (hora estándar central),NA,54,NA,NA,NA,NA,red-yellow,.,NA,both,both,NA,rny,ynr,none,1611801263365,NA,The icon represents the event that ,23,none,"Gran prueba, pero las preguntas fueron un poco confusas",NA,Graduated College,What event does this icon represent?,spanish,6001ec0ca3b1a3187ac01f0c,6218,male,3,1611798377236,stimuli/img/icons/red-yellow.png,NA,NA,NA,48.10215,NA,NA,NA,NA,attention_check
1564,The sliders represent the beliefs of a person who <br/><b>is very confident</b> that <b>either both</b> or <b>none</b> of the two blocks fall <br/>with a <b>tendency</b> towards the event that <b>both blocks fall</b>.</b>,NA,Wed Jan 27 2021 19:46:16 GMT-0600 (hora estándar central),NA,54,NA,NA,NA,NA,no_sc_yes2_1-not0,NA,NA,NA,no,</br>The sliders represent the beliefs of a person who <br/><b>is very confident</b> that <b>either both</b> or <b>none</b> of the two blocks fall <br/>with a <b>tendency</b> towards the event that <b>no block falls</b>.,no,NA,yes,1611801263365,NA,NA,23,yes,"Gran prueba, pero las preguntas fueron un poco confusas",NA,Graduated College,Please click on the button with the correct answer.,spanish,6001ec0ca3b1a3187ac01f0c,178232,male,1,1611798377236,stimuli/img/slider-choices/sc_yes2_1-not0.png,NA,NA,NA,48.10215,NA,NA,NA,NA,slider_choice_training
1564,The sliders represent the beliefs of a person who <br/><b>thinks</b> that <b>either both</b> or <b>none</b> of the two blocks fall <br/>with a <b>tendency</b> towards the event that <b>both blocks fall</b>.,NA,Wed Jan 27 2021 19:46:16 GMT-0600 (hora estándar central),NA,54,NA,NA,NA,NA,sc_yes2_0,NA,NA,NA,yes,</br>The sliders represent the beliefs of a person who <br/><b>thinks</b> that <b>either both</b> or <b>none</b> of the two blocks fall <br/>with a <b>tendency</b> towards the event that <b>both blocks fall</b>.,no,NA,yes,1611801263365,NA,NA,23,no,"Gran prueba, pero las preguntas fueron un poco confusas",NA,Graduated College,Please click on the button with the correct answer.,spanish,6001ec0ca3b1a3187ac01f0c,11662,male,2,1611798377236,stimuli/img/slider-choices/sc_yes2_0.png,NA,NA,NA,48.10215,NA,NA,NA,NA,slider_choice_training
1564,The sliders represent the beliefs of a person who <br/>is <b>pretty certain</b> that the <b>red block falls</b> but <b>not the yellow</b>.,NA,Wed Jan 27 2021 19:46:16 GMT-0600 (hora estándar central),NA,54,NA,NA,NA,NA,sc_yes3_0,NA,NA,NA,yes,</br>The sliders represent the beliefs of a person who <br/>is <b>pretty certain</b> that the <b>red block falls</b> but <b>not the yellow</b>.,no,NA,yes,1611801263365,NA,NA,23,yes,"Gran prueba, pero las preguntas fueron un poco confusas",NA,Graduated College,Please click on the button with the correct answer.,spanish,6001ec0ca3b1a3187ac01f0c,2013,male,3,1611798377236,stimuli/img/slider-choices/sc_yes3_0.png,NA,NA,NA,48.10215,NA,NA,NA,NA,slider_choice_training
1564,The sliders represent the beliefs of a person who <br/>is <b>pretty certain</b> that the <b>red block falls</b> but <b>not the yellow</b>.</b>,NA,Wed Jan 27 2021 19:46:16 GMT-0600 (hora estándar central),NA,54,NA,NA,NA,NA,no_sc_yes3_1,NA,NA,NA,no,</br>The sliders represent the beliefs of a person who <br/>is <b>pretty certain</b> that the <b><i>YELLOW</i> block falls</b> but <b>not the <i>RED</i></b>.,no,NA,yes,1611801263365,NA,NA,23,no,"Gran prueba, pero las preguntas fueron un poco confusas",NA,Graduated College,Please click on the button with the correct answer.,spanish,6001ec0ca3b1a3187ac01f0c,4426,male,4,1611798377236,stimuli/img/slider-choices/sc_yes3_1.png,NA,NA,NA,48.10215,NA,NA,NA,NA,slider_choice_training
1564,The sliders represent the beliefs of a person who <br/><b>thinks</b> that <b>yellow falls</b> but is <b>uncertain whether or not red falls</b>.,NA,Wed Jan 27 2021 19:46:16 GMT-0600 (hora estándar central),NA,54,NA,NA,NA,NA,sc_yes4_1,NA,NA,NA,yes,</br>The sliders represent the beliefs of a person who <br/><b>thinks</b> that <b>yellow falls</b> but is <b>uncertain whether or not red falls</b>.,no,NA,yes,1611801263365,NA,NA,23,yes,"Gran prueba, pero las preguntas fueron un poco confusas",NA,Graduated College,Please click on the button with the correct answer.,spanish,6001ec0ca3b1a3187ac01f0c,39024,male,5,1611798377236,stimuli/img/slider-choices/sc_yes4_1.png,NA,NA,NA,48.10215,NA,NA,NA,NA,slider_choice_training
1564,The sliders represent the beliefs of a person who <br/><b>thinks</b> that <b>yellow falls </b>but <b>probably not red</b>.,NA,Wed Jan 27 2021 19:46:16 GMT-0600 (hora estándar central),NA,54,NA,NA,NA,NA,sc_yes5_1,NA,NA,NA,yes,</br>The sliders represent the beliefs of a person who <br/><b>thinks</b> that <b>yellow falls </b>but <b>probably not red</b>.,no,NA,yes,1611801263365,NA,NA,23,no,"Gran prueba, pero las preguntas fueron un poco confusas",NA,Graduated College,Please click on the button with the correct answer.,spanish,6001ec0ca3b1a3187ac01f0c,105381,male,6,1611798377236,stimuli/img/slider-choices/sc_yes5_1.png,NA,NA,NA,48.10215,NA,NA,NA,NA,slider_choice_training
1564,The sliders represent the beliefs of a person who <br/><b>is very confident</b> that <b>yellow falls</b> but is <b>uncertain whether or not red falls</b>.</b>,NA,Wed Jan 27 2021 19:46:16 GMT-0600 (hora estándar central),NA,54,NA,NA,NA,NA,no_sc_yes4_0,NA,NA,NA,no,</br>The sliders represent the beliefs of a person who <br/><b>is very confident</b> that <b><i>RED</i> falls</b> but is <b>uncertain whether or not <i>YELLOW</i> falls</b>.,no,NA,yes,1611801263365,NA,NA,23,yes,"Gran prueba, pero las preguntas fueron un poco confusas",NA,Graduated College,Please click on the button with the correct answer.,spanish,6001ec0ca3b1a3187ac01f0c,133846,male,7,1611798377236,stimuli/img/slider-choices/sc_yes4_0.png,NA,NA,NA,48.10215,NA,NA,NA,NA,slider_choice_training
1564,The sliders represent the beliefs of a person who <br/><b>thinks</b> that <b>yellow falls</b> and that <b>red</b> is <b>more likely to fall than not to fall</b>.,NA,Wed Jan 27 2021 19:46:16 GMT-0600 (hora estándar central),NA,54,NA,NA,NA,NA,sc_yes6_1,NA,NA,NA,yes,</br>The sliders represent the beliefs of a person who <br/><b>thinks</b> that <b>yellow falls</b> and that <b>red</b> is <b>more likely to fall than not to fall</b>.,no,NA,yes,1611801263365,NA,NA,23,yes,"Gran prueba, pero las preguntas fueron un poco confusas",NA,Graduated College,Please click on the button with the correct answer.,spanish,6001ec0ca3b1a3187ac01f0c,3993,male,8,1611798377236,stimuli/img/slider-choices/sc_yes6_1.png,NA,NA,NA,48.10215,NA,NA,NA,NA,slider_choice_training
1564,The sliders represent the beliefs of a person who <br/><b>thinks</b> that <b>either both blocks</b> or <b>none</b> of the two blocks fall.,NA,Wed Jan 27 2021 19:46:16 GMT-0600 (hora estándar central),NA,54,NA,NA,NA,NA,sc_yes1,NA,NA,NA,yes,</br>The sliders represent the beliefs of a person who <br/><b>thinks</b> that <b>either both blocks</b> or <b>none</b> of the two blocks fall.,no,NA,yes,1611801263365,NA,NA,23,no,"Gran prueba, pero las preguntas fueron un poco confusas",NA,Graduated College,Please click on the button with the correct answer.,spanish,6001ec0ca3b1a3187ac01f0c,54524,male,9,1611798377236,stimuli/img/slider-choices/sc_yes1.png,NA,NA,NA,48.10215,NA,NA,NA,NA,slider_choice_training
1564,"The sliders represent the beliefs of a person who <br/>is <b>completely uncertain</b> whether the blocks fall, that is the person has <b>no tendency</b> towards any of the four events.",NA,Wed Jan 27 2021 19:46:16 GMT-0600 (hora estándar central),NA,54,NA,NA,NA,NA,sc_yes0,NA,NA,NA,yes,"</br>The sliders represent the beliefs of a person who <br/>is <b>completely uncertain</b> whether the blocks fall, that is the person has <b>no tendency</b> towards any of the four events.",no,NA,yes,1611801263365,NA,NA,23,yes,"Gran prueba, pero las preguntas fueron un poco confusas",NA,Graduated College,Please click on the button with the correct answer.,spanish,6001ec0ca3b1a3187ac01f0c,83636,male,10,1611798377236,stimuli/img/slider-choices/sc_yes0.png,NA,NA,NA,48.10215,NA,NA,NA,NA,slider_choice_training
1564,,23,Wed Jan 27 2021 19:46:16 GMT-0600 (hora estándar central),,54,,ry,certain,32,uncertain3,NA,none,NA,y,NA,NA,NA,NA,1611801263365,impossible,NA,23,23|18|28|32,"Gran prueba, pero las preguntas fueron un poco confusas",28,Graduated College,Please indicate how likely you think the shown events will occur. Click on RUN to see!,spanish,6001ec0ca3b1a3187ac01f0c,255330,male,1,1611798377236,,NA,NA,y,48.10215,NA,r,18,NA,animation_slider
1564,,18,Wed Jan 27 2021 19:46:16 GMT-0600 (hora estándar central),,54,,ry,certain,31,uncertain1,NA,none,NA,r,NA,NA,NA,NA,1611801263365,impossible,NA,23,18|29|22|31,"Gran prueba, pero las preguntas fueron un poco confusas",22,Graduated College,Please indicate how likely you think the shown events will occur. Click on RUN to see!,spanish,6001ec0ca3b1a3187ac01f0c,23810,male,2,1611798377236,,NA,NA,y,48.10215,NA,r,29,NA,animation_slider
1564,,0,Wed Jan 27 2021 19:46:16 GMT-0600 (hora estándar central),,54,,ry,certain,40,distance1,NA,none,NA,y,NA,NA,NA,NA,1611801263365,impossible,NA,23,0|25|35|40,"Gran prueba, pero las preguntas fueron un poco confusas",35,Graduated College,Please indicate how likely you think the shown events will occur. Click on RUN to see!,spanish,6001ec0ca3b1a3187ac01f0c,39192,male,3,1611798377236,,NA,NA,y,48.10215,NA,r,25,NA,animation_slider
1564,,20,Wed Jan 27 2021 19:46:16 GMT-0600 (hora estándar central),,54,,ry,certain,29,distance0,NA,none,NA,r,NA,NA,NA,NA,1611801263365,impossible,NA,23,20|29|21|29,"Gran prueba, pero las preguntas fueron un poco confusas",21,Graduated College,Please indicate how likely you think the shown events will occur. Click on RUN to see!,spanish,6001ec0ca3b1a3187ac01f0c,30030,male,4,1611798377236,,NA,NA,y,48.10215,NA,r,29,NA,animation_slider
1564,,22,Wed Jan 27 2021 19:46:16 GMT-0600 (hora estándar central),,54,,ry,certain,30,ac3,NA,none,NA,none,NA,NA,NA,NA,1611801263365,impossible,NA,23,22|21|27|30,"Gran prueba, pero las preguntas fueron un poco confusas",27,Graduated College,Please indicate how likely you think the shown events will occur. Click on RUN to see!,spanish,6001ec0ca3b1a3187ac01f0c,27084,male,5,1611798377236,,NA,NA,y,48.10215,NA,r,21,NA,animation_slider
1564,,11,Wed Jan 27 2021 19:46:16 GMT-0600 (hora estándar central),,54,,ry,certain,0,ind1,NA,none,NA,ry,NA,NA,NA,NA,1611801263365,impossible,NA,23,11|67|21|0,"Gran prueba, pero las preguntas fueron un poco confusas",21,Graduated College,Please indicate how likely you think the shown events will occur. Click on RUN to see!,spanish,6001ec0ca3b1a3187ac01f0c,38089,male,6,1611798377236,,NA,NA,y,48.10215,NA,r,67,NA,animation_slider
1564,,21,Wed Jan 27 2021 19:46:16 GMT-0600 (hora estándar central),,54,,ry,certain,38,ssw1,NA,none,NA,none,NA,NA,NA,NA,1611801263365,impossible,NA,23,21|23|18|38,"Gran prueba, pero las preguntas fueron un poco confusas",18,Graduated College,Please indicate how likely you think the shown events will occur. Click on RUN to see!,spanish,6001ec0ca3b1a3187ac01f0c,25657,male,7,1611798377236,,NA,NA,y,48.10215,NA,r,23,NA,animation_slider
1564,,31,Wed Jan 27 2021 19:46:16 GMT-0600 (hora estándar central),,54,,ry,certain,5,ssw0,NA,none,NA,ry,NA,NA,NA,NA,1611801263365,impossible,NA,23,31|18|46|5,"Gran prueba, pero las preguntas fueron un poco confusas",46,Graduated College,Please indicate how likely you think the shown events will occur. Click on RUN to see!,spanish,6001ec0ca3b1a3187ac01f0c,28332,male,8,1611798377236,,NA,NA,y,48.10215,NA,r,18,NA,animation_slider
1564,,8,Wed Jan 27 2021 19:46:16 GMT-0600 (hora estándar central),,54,,ry,certain,31,uncertain0,NA,none,NA,y,NA,NA,NA,NA,1611801263365,impossible,NA,23,8|49|11|31,"Gran prueba, pero las preguntas fueron un poco confusas",11,Graduated College,Please indicate how likely you think the shown events will occur. Click on RUN to see!,spanish,6001ec0ca3b1a3187ac01f0c,20661,male,9,1611798377236,,NA,NA,y,48.10215,NA,r,49,NA,animation_slider
1564,,32,Wed Jan 27 2021 19:46:16 GMT-0600 (hora estándar central),,54,,ry,certain,22,ind0,NA,none,NA,r,NA,NA,NA,NA,1611801263365,impossible,NA,23,32|22|25|22,"Gran prueba, pero las preguntas fueron un poco confusas",25,Graduated College,Please indicate how likely you think the shown events will occur. Click on RUN to see!,spanish,6001ec0ca3b1a3187ac01f0c,20465,male,10,1611798377236,,NA,NA,y,48.10215,NA,r,22,NA,animation_slider
1564,,27,Wed Jan 27 2021 19:46:16 GMT-0600 (hora estándar central),,54,,ry,certain,17,ac0,NA,none,NA,ry,NA,NA,NA,NA,1611801263365,impossible,NA,23,27|30|26|17,"Gran prueba, pero las preguntas fueron un poco confusas",26,Graduated College,Please indicate how likely you think the shown events will occur. Click on RUN to see!,spanish,6001ec0ca3b1a3187ac01f0c,18375,male,11,1611798377236,,NA,NA,y,48.10215,NA,r,30,NA,animation_slider
1564,,29,Wed Jan 27 2021 19:46:16 GMT-0600 (hora estándar central),,54,,ry,certain,25,ac1,NA,none,NA,y,NA,NA,NA,NA,1611801263365,impossible,NA,23,29|29|17|25,"Gran prueba, pero las preguntas fueron un poco confusas",17,Graduated College,Please indicate how likely you think the shown events will occur. Click on RUN to see!,spanish,6001ec0ca3b1a3187ac01f0c,21080,male,12,1611798377236,,NA,NA,y,48.10215,NA,r,29,NA,animation_slider
1564,,44,Wed Jan 27 2021 19:46:16 GMT-0600 (hora estándar central),,54,,ry,certain,12,ac2,NA,none,NA,ry,NA,NA,NA,NA,1611801263365,impossible,NA,23,44|27|17|12,"Gran prueba, pero las preguntas fueron un poco confusas",17,Graduated College,Please indicate how likely you think the shown events will occur. Click on RUN to see!,spanish,6001ec0ca3b1a3187ac01f0c,34951,male,13,1611798377236,,NA,NA,y,48.10215,NA,r,27,NA,animation_slider
1564,,27,Wed Jan 27 2021 19:46:16 GMT-0600 (hora estándar central),,54,,ry,certain,25,uncertain2,NA,none,NA,r,NA,NA,NA,NA,1611801263365,impossible,NA,23,27|23|25|25,"Gran prueba, pero las preguntas fueron un poco confusas",25,Graduated College,Please indicate how likely you think the shown events will occur. Click on RUN to see!,spanish,6001ec0ca3b1a3187ac01f0c,20492,male,14,1611798377236,,NA,NA,y,48.10215,NA,r,23,NA,animation_slider
1564,,the blue block falls if the green block does not fall,Wed Jan 27 2021 19:46:16 GMT-0600 (hora estándar central),NA,54,group1,,,13,ind2,NA,,NA,,NA,NA,NA,NA,1611801263365,,NA,23,the blue block falls if the green block does not fall|If the block fall  only the blue stay fall whit the ball,"Gran prueba, pero las preguntas fueron un poco confusas",6,Graduated College,TRY OUT EXAMPLE &mdash;Task 2: Please describe to a critical friend as adequately as possible <br/>what happens with the blue and the green block in the picture.,spanish,6001ec0ca3b1a3187ac01f0c,70856,male,1,1611798377236,stimuli/img/train/ind2_test_colors.png,6,NA,,48.10215,NA,,If the block fall  only the blue stay fall whit the ball,NA,fridge_train
1564,,25,Wed Jan 27 2021 19:46:16 GMT-0600 (hora estándar central),NA,54,group1,bg,certain,24,if1_hh,NA,none,NA,,NA,NA,NA,NA,1611801263365,impossible,NA,23,25|24|27|24,"Gran prueba, pero las preguntas fueron un poco confusas",27,Graduated College,Task 1: Please indicate how likely you think the shown events will occur.,spanish,6001ec0ca3b1a3187ac01f0c,22400,male,2,1611798377236,stimuli/img/group1/if1_hh.png,NA,NA,g,48.10215,NA,b,24,NA,multiple_slider0
1564,,the green block falls,Wed Jan 27 2021 19:46:16 GMT-0600 (hora estándar central),NA,54,group1,,,1,if1_hh,NA,,NA,,NA,NA,NA,NA,1611801263365,,NA,23,the green block falls|,"Gran prueba, pero las preguntas fueron un poco confusas",2,Graduated College,Task 2: Please describe to a critical friend as adequately as possible <br/>what happens with the blue and the green block in the picture.,spanish,6001ec0ca3b1a3187ac01f0c,28975,male,3,1611798377236,stimuli/img/group1/if1_hh.png,2,NA,,48.10215,NA,,,NA,fridge_view0
1564,,27,Wed Jan 27 2021 19:46:16 GMT-0600 (hora estándar central),NA,54,group1,bg,certain,19,if2_ul,NA,none,NA,,NA,NA,NA,NA,1611801263365,impossible,NA,23,27|31|23|19,"Gran prueba, pero las preguntas fueron un poco confusas",23,Graduated College,Task 1: Please indicate how likely you think the shown events will occur.,spanish,6001ec0ca3b1a3187ac01f0c,15309,male,4,1611798377236,stimuli/img/group1/if2_ul.png,NA,NA,g,48.10215,NA,b,31,NA,multiple_slider1
1564,,the blue block falls,Wed Jan 27 2021 19:46:16 GMT-0600 (hora estándar central),NA,54,group1,,,1,if2_ul,NA,,NA,,NA,NA,NA,NA,1611801263365,,NA,23,the blue block falls|,"Gran prueba, pero las preguntas fueron un poco confusas",2,Graduated College,Task 2: Please describe to a critical friend as adequately as possible <br/>what happens with the blue and the green block in the picture.,spanish,6001ec0ca3b1a3187ac01f0c,15759,male,5,1611798377236,stimuli/img/group1/if2_ul.png,2,NA,,48.10215,NA,,,NA,fridge_view1
1564,,NA,Wed Jan 27 2021 19:46:16 GMT-0600 (hora estándar central),NA,54,NA,NA,NA,NA,yellow-red,.,NA,grey,yellow,NA,blue,green,black,1611801263365,NA,The upper block is ,23,yellow,"Gran prueba, pero las preguntas fueron un poco confusas",NA,Graduated College,What's the color of the <b>upper</b> block on the picture?,spanish,6001ec0ca3b1a3187ac01f0c,17635,male,4,1611798377236,stimuli/img/color_vision/yellow_red.png,NA,yellow,NA,48.10215,purple,NA,NA,red,color-vision0
1564,,22,Wed Jan 27 2021 19:46:16 GMT-0600 (hora estándar central),NA,54,group2,bg,certain,29,independent_ul,NA,none,NA,,NA,NA,NA,NA,1611801263365,impossible,NA,23,22|27|23|29,"Gran prueba, pero las preguntas fueron un poco confusas",23,Graduated College,Task 1: Please indicate how likely you think the shown events will occur.,spanish,6001ec0ca3b1a3187ac01f0c,14564,male,6,1611798377236,stimuli/img/group2/independent_ul.png,NA,NA,g,48.10215,NA,b,27,NA,multiple_slider2
1564,,the green block does not fall,Wed Jan 27 2021 19:46:16 GMT-0600 (hora estándar central),NA,54,group2,,,1,independent_ul,NA,,NA,,NA,NA,NA,NA,1611801263365,,NA,23,the green block does not fall|,"Gran prueba, pero las preguntas fueron un poco confusas",3,Graduated College,Task 2: Please describe to a critical friend as adequately as possible <br/>what happens with the blue and the green block in the picture.,spanish,6001ec0ca3b1a3187ac01f0c,17318,male,7,1611798377236,stimuli/img/group2/independent_ul.png,3,NA,,48.10215,NA,,,NA,fridge_view2
1564,,42,Wed Jan 27 2021 19:46:16 GMT-0600 (hora estándar central),NA,54,group2,bg,certain,1,if2_hl,NA,none,NA,,NA,NA,NA,NA,1611801263365,impossible,NA,23,42|38|18|1,"Gran prueba, pero las preguntas fueron un poco confusas",18,Graduated College,Task 1: Please indicate how likely you think the shown events will occur.,spanish,6001ec0ca3b1a3187ac01f0c,10951,male,8,1611798377236,stimuli/img/group2/if2_hl.png,NA,NA,g,48.10215,NA,b,38,NA,multiple_slider3
1564,,the green block might fall,Wed Jan 27 2021 19:46:16 GMT-0600 (hora estándar central),NA,54,group2,,,1,if2_hl,NA,,NA,,NA,NA,NA,NA,1611801263365,,NA,23,the green block might fall|,"Gran prueba, pero las preguntas fueron un poco confusas",3,Graduated College,Task 2: Please describe to a critical friend as adequately as possible <br/>what happens with the blue and the green block in the picture.,spanish,6001ec0ca3b1a3187ac01f0c,38171,male,9,1611798377236,stimuli/img/group2/if2_hl.png,3,NA,,48.10215,NA,,,NA,fridge_view3
1564,,NA,Wed Jan 27 2021 19:46:16 GMT-0600 (hora estándar central),NA,54,NA,NA,NA,NA,blue-green,.,NA,grey,blue,NA,blue,green,black,1611801263365,NA,The upper block is ,23,blue,"Gran prueba, pero las preguntas fueron un poco confusas",NA,Graduated College,What's the color of the <b>upper</b> block on the picture?,spanish,6001ec0ca3b1a3187ac01f0c,14555,male,5,1611798377236,stimuli/img/color_vision/blue_green.png,NA,yellow,NA,48.10215,purple,NA,NA,red,color-vision1
1564,,27,Wed Jan 27 2021 19:46:16 GMT-0600 (hora estándar central),NA,54,group1,bg,certain,28,independent_ll,NA,none,NA,,NA,NA,NA,NA,1611801263365,impossible,NA,23,27|23|23|28,"Gran prueba, pero las preguntas fueron un poco confusas",23,Graduated College,Task 1: Please indicate how likely you think the shown events will occur.,spanish,6001ec0ca3b1a3187ac01f0c,8048,male,10,1611798377236,stimuli/img/group1/independent_ll.png,NA,NA,g,48.10215,NA,b,23,NA,multiple_slider4
1564,,the green block does not fall,Wed Jan 27 2021 19:46:16 GMT-0600 (hora estándar central),NA,54,group1,,,1,independent_ll,NA,,NA,,NA,NA,NA,NA,1611801263365,,NA,23,the green block does not fall|,"Gran prueba, pero las preguntas fueron un poco confusas",3,Graduated College,Task 2: Please describe to a critical friend as adequately as possible <br/>what happens with the blue and the green block in the picture.,spanish,6001ec0ca3b1a3187ac01f0c,14622,male,11,1611798377236,stimuli/img/group1/independent_ll.png,3,NA,,48.10215,NA,,,NA,fridge_view4
1564,,27,Wed Jan 27 2021 19:46:16 GMT-0600 (hora estándar central),NA,54,group1,bg,certain,32,if1_uh,NA,none,NA,,NA,NA,NA,NA,1611801263365,impossible,NA,23,27|18|23|32,"Gran prueba, pero las preguntas fueron un poco confusas",23,Graduated College,Task 1: Please indicate how likely you think the shown events will occur.,spanish,6001ec0ca3b1a3187ac01f0c,11020,male,12,1611798377236,stimuli/img/group1/if1_uh.png,NA,NA,g,48.10215,NA,b,18,NA,multiple_slider5
1564,,the blue block might fall,Wed Jan 27 2021 19:46:16 GMT-0600 (hora estándar central),NA,54,group1,,,1,if1_uh,NA,,NA,,NA,NA,NA,NA,1611801263365,,NA,23,the blue block might fall|,"Gran prueba, pero las preguntas fueron un poco confusas",3,Graduated College,Task 2: Please describe to a critical friend as adequately as possible <br/>what happens with the blue and the green block in the picture.,spanish,6001ec0ca3b1a3187ac01f0c,15626,male,13,1611798377236,stimuli/img/group1/if1_uh.png,3,NA,,48.10215,NA,,,NA,fridge_view5
1564,,NA,Wed Jan 27 2021 19:46:16 GMT-0600 (hora estándar central),NA,54,NA,NA,NA,NA,red-yellow,.,NA,grey,red,NA,blue,green,black,1611801263365,NA,The upper block is ,23,red,"Gran prueba, pero las preguntas fueron un poco confusas",NA,Graduated College,What's the color of the <b>upper</b> block on the picture?,spanish,6001ec0ca3b1a3187ac01f0c,11676,male,6,1611798377236,stimuli/img/color_vision/red_yellow.png,NA,yellow,NA,48.10215,purple,NA,NA,red,color-vision2
1564,,25,Wed Jan 27 2021 19:46:16 GMT-0600 (hora estándar central),NA,54,group1,bg,certain,30,independent_hl,NA,none,NA,,NA,NA,NA,NA,1611801263365,impossible,NA,23,25|21|23|30,"Gran prueba, pero las preguntas fueron un poco confusas",23,Graduated College,Task 1: Please indicate how likely you think the shown events will occur.,spanish,6001ec0ca3b1a3187ac01f0c,8964,male,14,1611798377236,stimuli/img/group1/independent_hl.png,NA,NA,g,48.10215,NA,b,21,NA,multiple_slider6
1564,,the blue block might fall,Wed Jan 27 2021 19:46:16 GMT-0600 (hora estándar central),NA,54,group1,,,1,independent_hl,NA,,NA,,NA,NA,NA,NA,1611801263365,,NA,23,the blue block might fall|,"Gran prueba, pero las preguntas fueron un poco confusas",3,Graduated College,Task 2: Please describe to a critical friend as adequately as possible <br/>what happens with the blue and the green block in the picture.,spanish,6001ec0ca3b1a3187ac01f0c,9669,male,15,1611798377236,stimuli/img/group1/independent_hl.png,3,NA,,48.10215,NA,,,NA,fridge_view6
1564,,24,Wed Jan 27 2021 19:46:16 GMT-0600 (hora estándar central),NA,54,group2,bg,certain,24,if1_lh,NA,none,NA,,NA,NA,NA,NA,1611801263365,impossible,NA,23,24|27|25|24,"Gran prueba, pero las preguntas fueron un poco confusas",25,Graduated College,Task 1: Please indicate how likely you think the shown events will occur.,spanish,6001ec0ca3b1a3187ac01f0c,8585,male,16,1611798377236,stimuli/img/group2/if1_lh.png,NA,NA,g,48.10215,NA,b,27,NA,multiple_slider7
1564,,the blue block might fall,Wed Jan 27 2021 19:46:16 GMT-0600 (hora estándar central),NA,54,group2,,,1,if1_lh,NA,,NA,,NA,NA,NA,NA,1611801263365,,NA,23,the blue block might fall|,"Gran prueba, pero las preguntas fueron un poco confusas",3,Graduated College,Task 2: Please describe to a critical friend as adequately as possible <br/>what happens with the blue and the green block in the picture.,spanish,6001ec0ca3b1a3187ac01f0c,13303,male,17,1611798377236,stimuli/img/group2/if1_lh.png,3,NA,,48.10215,NA,,,NA,fridge_view7
1564,,NA,Wed Jan 27 2021 19:46:16 GMT-0600 (hora estándar central),NA,54,NA,NA,NA,NA,green,.,NA,grey,green,NA,blue,green,black,1611801263365,NA,The block is ,23,green,"Gran prueba, pero las preguntas fueron un poco confusas",NA,Graduated College,What's the color of the block on the picture?,spanish,6001ec0ca3b1a3187ac01f0c,5817,male,7,1611798377236,stimuli/img/color_vision/green.png,NA,yellow,NA,48.10215,purple,NA,NA,red,color-vision3
1564,,26,Wed Jan 27 2021 19:46:16 GMT-0600 (hora estándar central),NA,54,group2,bg,certain,24,if2_u-Ll,NA,none,NA,,NA,NA,NA,NA,1611801263365,impossible,NA,23,26|25|24|24,"Gran prueba, pero las preguntas fueron un poco confusas",24,Graduated College,Task 1: Please indicate how likely you think the shown events will occur.,spanish,6001ec0ca3b1a3187ac01f0c,6723,male,18,1611798377236,stimuli/img/group2/if2_u-Ll.png,NA,NA,g,48.10215,NA,b,25,NA,multiple_slider8
1564,,the green block might fall,Wed Jan 27 2021 19:46:16 GMT-0600 (hora estándar central),NA,54,group2,,,1,if2_u-Ll,NA,,NA,,NA,NA,NA,NA,1611801263365,,NA,23,the green block might fall|,"Gran prueba, pero las preguntas fueron un poco confusas",3,Graduated College,Task 2: Please describe to a critical friend as adequately as possible <br/>what happens with the blue and the green block in the picture.,spanish,6001ec0ca3b1a3187ac01f0c,35888,male,19,1611798377236,stimuli/img/group2/if2_u-Ll.png,3,NA,,48.10215,NA,,,NA,fridge_view8
1564,,29,Wed Jan 27 2021 19:46:16 GMT-0600 (hora estándar central),NA,54,group1,bg,certain,23,independent_uh,NA,none,NA,,NA,NA,NA,NA,1611801263365,impossible,NA,23,29|29|19|23,"Gran prueba, pero las preguntas fueron un poco confusas",19,Graduated College,Task 1: Please indicate how likely you think the shown events will occur.,spanish,6001ec0ca3b1a3187ac01f0c,6378,male,20,1611798377236,stimuli/img/group1/independent_uh.png,NA,NA,g,48.10215,NA,b,29,NA,multiple_slider9
1564,,the blue block might fall,Wed Jan 27 2021 19:46:16 GMT-0600 (hora estándar central),NA,54,group1,,,1,independent_uh,NA,,NA,,NA,NA,NA,NA,1611801263365,,NA,23,the blue block might fall|,"Gran prueba, pero las preguntas fueron un poco confusas",3,Graduated College,Task 2: Please describe to a critical friend as adequately as possible <br/>what happens with the blue and the green block in the picture.,spanish,6001ec0ca3b1a3187ac01f0c,10886,male,21,1611798377236,stimuli/img/group1/independent_uh.png,3,NA,,48.10215,NA,,,NA,fridge_view9
1564,,NA,Wed Jan 27 2021 19:46:16 GMT-0600 (hora estándar central),NA,54,NA,NA,NA,NA,blue,.,NA,grey,blue,NA,blue,green,black,1611801263365,NA,The block is ,23,blue,"Gran prueba, pero las preguntas fueron un poco confusas",NA,Graduated College,What's the color of the block on the picture?,spanish,6001ec0ca3b1a3187ac01f0c,9809,male,8,1611798377236,stimuli/img/color_vision/blue.png,NA,yellow,NA,48.10215,purple,NA,NA,red,color-vision4
1564,,21,Wed Jan 27 2021 19:46:16 GMT-0600 (hora estándar central),NA,54,group1,bg,certain,25,if2_ll,NA,none,NA,,NA,NA,NA,NA,1611801263365,impossible,NA,23,21|27|27|25,"Gran prueba, pero las preguntas fueron un poco confusas",27,Graduated College,Task 1: Please indicate how likely you think the shown events will occur.,spanish,6001ec0ca3b1a3187ac01f0c,7788,male,22,1611798377236,stimuli/img/group1/if2_ll.png,NA,NA,g,48.10215,NA,b,27,NA,multiple_slider10
1564,,neither block falls,Wed Jan 27 2021 19:46:16 GMT-0600 (hora estándar central),NA,54,group1,,,1,if2_ll,NA,,NA,,NA,NA,NA,NA,1611801263365,,NA,23,neither block falls|,"Gran prueba, pero las preguntas fueron un poco confusas",2,Graduated College,Task 2: Please describe to a critical friend as adequately as possible <br/>what happens with the blue and the green block in the picture.,spanish,6001ec0ca3b1a3187ac01f0c,30082,male,23,1611798377236,stimuli/img/group1/if2_ll.png,2,NA,,48.10215,NA,,,NA,fridge_view10
1564,,25,Wed Jan 27 2021 19:46:16 GMT-0600 (hora estándar central),NA,54,group2,bg,certain,25,if1_u-Lh,NA,none,NA,,NA,NA,NA,NA,1611801263365,impossible,NA,23,25|25|25|25,"Gran prueba, pero las preguntas fueron un poco confusas",25,Graduated College,Task 1: Please indicate how likely you think the shown events will occur.,spanish,6001ec0ca3b1a3187ac01f0c,9399,male,24,1611798377236,stimuli/img/group2/if1_u-Lh.png,NA,NA,g,48.10215,NA,b,25,NA,multiple_slider11
1564,,the blue block might fall,Wed Jan 27 2021 19:46:16 GMT-0600 (hora estándar central),NA,54,group2,,,1,if1_u-Lh,NA,,NA,,NA,NA,NA,NA,1611801263365,,NA,23,the blue block might fall|,"Gran prueba, pero las preguntas fueron un poco confusas",3,Graduated College,Task 2: Please describe to a critical friend as adequately as possible <br/>what happens with the blue and the green block in the picture.,spanish,6001ec0ca3b1a3187ac01f0c,12813,male,25,1611798377236,stimuli/img/group2/if1_u-Lh.png,3,NA,,48.10215,NA,,,NA,fridge_view11
1564,,NA,Wed Jan 27 2021 19:46:16 GMT-0600 (hora estándar central),NA,54,NA,NA,NA,NA,green-blue,.,NA,grey,green,NA,blue,green,black,1611801263365,NA,The upper block is ,23,green,"Gran prueba, pero las preguntas fueron un poco confusas",NA,Graduated College,What's the color of the <b>upper</b> block on the picture?,spanish,6001ec0ca3b1a3187ac01f0c,4709,male,9,1611798377236,stimuli/img/color_vision/green_blue.png,NA,yellow,NA,48.10215,purple,NA,NA,red,color-vision5
1564,,24,Wed Jan 27 2021 19:46:16 GMT-0600 (hora estándar central),NA,54,group2,bg,certain,25,independent_hh,NA,none,NA,,NA,NA,NA,NA,1611801263365,impossible,NA,23,24|27|24|25,"Gran prueba, pero las preguntas fueron un poco confusas",24,Graduated College,Task 1: Please indicate how likely you think the shown events will occur.,spanish,6001ec0ca3b1a3187ac01f0c,6235,male,26,1611798377236,stimuli/img/group2/independent_hh.png,NA,NA,g,48.10215,NA,b,27,NA,multiple_slider12
1564,,the blue block might fall,Wed Jan 27 2021 19:46:16 GMT-0600 (hora estándar central),NA,54,group2,,,1,independent_hh,NA,,NA,,NA,NA,NA,NA,1611801263365,,NA,23,the blue block might fall|,"Gran prueba, pero las preguntas fueron un poco confusas",3,Graduated College,Task 2: Please describe to a critical friend as adequately as possible <br/>what happens with the blue and the green block in the picture.,spanish,6001ec0ca3b1a3187ac01f0c,10505,male,27,1611798377236,stimuli/img/group2/independent_hh.png,3,NA,,48.10215,NA,,,NA,fridge_view12
1563,,NA,Thu Jan 28 2021 02:00:15 GMT+0000 (Greenwich Mean Time),NA,54,NA,NA,NA,NA,not-red-yellow,.,NA,both,ynr,NA,ynr,none,rny,1611801009016,NA,The icon represents the event that ,19,ynr,,NA,Graduated High School,What event does this icon represent?,Czech,5fc9a824ca46654eeaab0f6e,10642,male,1,1611799215168,stimuli/img/icons/not-red-yellow.png,NA,NA,NA,29.897466666666666,NA,NA,NA,NA,attention_check
1563,,NA,Thu Jan 28 2021 02:00:15 GMT+0000 (Greenwich Mean Time),NA,54,NA,NA,NA,NA,not-yellow-red,.,NA,none,rny,NA,both,ynr,rny,1611801009016,NA,The icon represents the event that ,19,rny,,NA,Graduated High School,What event does this icon represent?,Czech,5fc9a824ca46654eeaab0f6e,6837,male,2,1611799215168,stimuli/img/icons/red-not-yellow.png,NA,NA,NA,29.897466666666666,NA,NA,NA,NA,attention_check
1563,,NA,Thu Jan 28 2021 02:00:15 GMT+0000 (Greenwich Mean Time),NA,54,NA,NA,NA,NA,red-yellow,.,NA,both,both,NA,rny,ynr,none,1611801009016,NA,The icon represents the event that ,19,both,,NA,Graduated High School,What event does this icon represent?,Czech,5fc9a824ca46654eeaab0f6e,3933,male,3,1611799215168,stimuli/img/icons/red-yellow.png,NA,NA,NA,29.897466666666666,NA,NA,NA,NA,attention_check
1563,The sliders represent the beliefs of a person who <br/><b>thinks</b> that <b>red falls</b> and that <b>yellow</b> is <b>more likely to fall than not to fall</b>.,NA,Thu Jan 28 2021 02:00:15 GMT+0000 (Greenwich Mean Time),NA,54,NA,NA,NA,NA,sc_yes6_0,NA,NA,NA,yes,</br>The sliders represent the beliefs of a person who <br/><b>thinks</b> that <b>red falls</b> and that <b>yellow</b> is <b>more likely to fall than not to fall</b>.,no,NA,yes,1611801009016,NA,NA,19,no,,NA,Graduated High School,Please click on the button with the correct answer.,Czech,5fc9a824ca46654eeaab0f6e,57930,male,1,1611799215168,stimuli/img/slider-choices/sc_yes6_0.png,NA,NA,NA,29.897466666666666,NA,NA,NA,NA,slider_choice_training
1563,The sliders represent the beliefs of a person who <br/><b>is very confident</b> that <b>red falls</b> but is <b>uncertain whether or not yellow falls</b>.</b>,NA,Thu Jan 28 2021 02:00:15 GMT+0000 (Greenwich Mean Time),NA,54,NA,NA,NA,NA,no_sc_yes4_1,NA,NA,NA,no,</br>The sliders represent the beliefs of a person who <br/><b>is very confident</b> that <b><i>YELLOW</i> falls</b> but is <b>uncertain whether or not <i>RED</i> falls</b>.,no,NA,yes,1611801009016,NA,NA,19,yes,,NA,Graduated High School,Please click on the button with the correct answer.,Czech,5fc9a824ca46654eeaab0f6e,23203,male,2,1611799215168,stimuli/img/slider-choices/sc_yes4_1.png,NA,NA,NA,29.897466666666666,NA,NA,NA,NA,slider_choice_training
1563,The sliders represent the beliefs of a person who <br/><b>thinks</b> that <b>red falls</b> but <b>probably not yellow</b>.,NA,Thu Jan 28 2021 02:00:15 GMT+0000 (Greenwich Mean Time),NA,54,NA,NA,NA,NA,sc_yes5_0,NA,NA,NA,yes,</br>The sliders represent the beliefs of a person who <br/><b>thinks</b> that <b>red falls</b> but <b>probably not yellow</b>.,no,NA,yes,1611801009016,NA,NA,19,yes,,NA,Graduated High School,Please click on the button with the correct answer.,Czech,5fc9a824ca46654eeaab0f6e,33253,male,3,1611799215168,stimuli/img/slider-choices/sc_yes5_0.png,NA,NA,NA,29.897466666666666,NA,NA,NA,NA,slider_choice_training
1563,The sliders represent the beliefs of a person who <br/><b>thinks</b> that <b>red falls</b> but is <b>uncertain whether or not yellow falls</b>.,NA,Thu Jan 28 2021 02:00:15 GMT+0000 (Greenwich Mean Time),NA,54,NA,NA,NA,NA,sc_yes4_0,NA,NA,NA,yes,</br>The sliders represent the beliefs of a person who <br/><b>thinks</b> that <b>red falls</b> but is <b>uncertain whether or not yellow falls</b>.,no,NA,yes,1611801009016,NA,NA,19,no,,NA,Graduated High School,Please click on the button with the correct answer.,Czech,5fc9a824ca46654eeaab0f6e,17381,male,4,1611799215168,stimuli/img/slider-choices/sc_yes4_0.png,NA,NA,NA,29.897466666666666,NA,NA,NA,NA,slider_choice_training
1563,The sliders represent the beliefs of a person who <br/>is <b>pretty certain</b> that the <b>yellow block falls</b> but <b>not the red</b>.</b>,NA,Thu Jan 28 2021 02:00:15 GMT+0000 (Greenwich Mean Time),NA,54,NA,NA,NA,NA,no_sc_yes3_0,NA,NA,NA,no,</br>The sliders represent the beliefs of a person who <br/>is <b>pretty certain</b> that the <b><i>RED</i> block falls</b> but <b>not the <i>YELLOW</i></b>.,no,NA,yes,1611801009016,NA,NA,19,no,,NA,Graduated High School,Please click on the button with the correct answer.,Czech,5fc9a824ca46654eeaab0f6e,13916,male,5,1611799215168,stimuli/img/slider-choices/sc_yes3_0.png,NA,NA,NA,29.897466666666666,NA,NA,NA,NA,slider_choice_training
1563,The sliders represent the beliefs of a person who <br/>is <b>pretty certain</b> that the <b>yellow block falls</b> but <b>not the red</b>.,NA,Thu Jan 28 2021 02:00:15 GMT+0000 (Greenwich Mean Time),NA,54,NA,NA,NA,NA,sc_yes3_1,NA,NA,NA,yes,</br>The sliders represent the beliefs of a person who <br/>is <b>pretty certain</b> that the <b>yellow block falls</b> but <b>not the red</b>.,no,NA,yes,1611801009016,NA,NA,19,yes,,NA,Graduated High School,Please click on the button with the correct answer.,Czech,5fc9a824ca46654eeaab0f6e,8336,male,6,1611799215168,stimuli/img/slider-choices/sc_yes3_1.png,NA,NA,NA,29.897466666666666,NA,NA,NA,NA,slider_choice_training
1563,The sliders represent the beliefs of a person who <br/><b>thinks</b> that <b>either both</b> or <b>none</b> of the two blocks fall <br/>with a <b>tendency</b> towards the event that <b>both blocks fall</b>.,NA,Thu Jan 28 2021 02:00:15 GMT+0000 (Greenwich Mean Time),NA,54,NA,NA,NA,NA,sc_yes2_0,NA,NA,NA,yes,</br>The sliders represent the beliefs of a person who <br/><b>thinks</b> that <b>either both</b> or <b>none</b> of the two blocks fall <br/>with a <b>tendency</b> towards the event that <b>both blocks fall</b>.,no,NA,yes,1611801009016,NA,NA,19,yes,,NA,Graduated High School,Please click on the button with the correct answer.,Czech,5fc9a824ca46654eeaab0f6e,34245,male,7,1611799215168,stimuli/img/slider-choices/sc_yes2_0.png,NA,NA,NA,29.897466666666666,NA,NA,NA,NA,slider_choice_training
1563,The sliders represent the beliefs of a person who <br/><b>is very confident</b> that <b>either both</b> or <b>none</b> of the two blocks fall <br/>with a <b>tendency</b> towards the event that <b>both blocks fall</b>.</b>,NA,Thu Jan 28 2021 02:00:15 GMT+0000 (Greenwich Mean Time),NA,54,NA,NA,NA,NA,no_sc_yes2_1-not0,NA,NA,NA,no,</br>The sliders represent the beliefs of a person who <br/><b>is very confident</b> that <b>either both</b> or <b>none</b> of the two blocks fall <br/>with a <b>tendency</b> towards the event that <b>no block falls</b>.,no,NA,yes,1611801009016,NA,NA,19,yes,,NA,Graduated High School,Please click on the button with the correct answer.,Czech,5fc9a824ca46654eeaab0f6e,19099,male,8,1611799215168,stimuli/img/slider-choices/sc_yes2_1-not0.png,NA,NA,NA,29.897466666666666,NA,NA,NA,NA,slider_choice_training
1563,The sliders represent the beliefs of a person who <br/><b>thinks</b> that <b>either both blocks</b> or <b>none</b> of the two blocks fall.,NA,Thu Jan 28 2021 02:00:15 GMT+0000 (Greenwich Mean Time),NA,54,NA,NA,NA,NA,sc_yes1,NA,NA,NA,yes,</br>The sliders represent the beliefs of a person who <br/><b>thinks</b> that <b>either both blocks</b> or <b>none</b> of the two blocks fall.,no,NA,yes,1611801009016,NA,NA,19,no,,NA,Graduated High School,Please click on the button with the correct answer.,Czech,5fc9a824ca46654eeaab0f6e,18345,male,9,1611799215168,stimuli/img/slider-choices/sc_yes1.png,NA,NA,NA,29.897466666666666,NA,NA,NA,NA,slider_choice_training
1563,"The sliders represent the beliefs of a person who <br/>is <b>completely uncertain</b> whether the blocks fall, that is the person has <b>no tendency</b> towards any of the four events.",NA,Thu Jan 28 2021 02:00:15 GMT+0000 (Greenwich Mean Time),NA,54,NA,NA,NA,NA,sc_yes0,NA,NA,NA,yes,"</br>The sliders represent the beliefs of a person who <br/>is <b>completely uncertain</b> whether the blocks fall, that is the person has <b>no tendency</b> towards any of the four events.",no,NA,yes,1611801009016,NA,NA,19,no,,NA,Graduated High School,Please click on the button with the correct answer.,Czech,5fc9a824ca46654eeaab0f6e,9393,male,10,1611799215168,stimuli/img/slider-choices/sc_yes0.png,NA,NA,NA,29.897466666666666,NA,NA,NA,NA,slider_choice_training
1563,,37,Thu Jan 28 2021 02:00:15 GMT+0000 (Greenwich Mean Time),,54,,ry,certain,12,uncertain3,NA,none,NA,y,NA,NA,NA,NA,1611801009016,impossible,NA,19,37|9|42|12,,42,Graduated High School,Please indicate how likely you think the shown events will occur. Click on RUN to see!,Czech,5fc9a824ca46654eeaab0f6e,84948,male,1,1611799215168,,NA,NA,y,29.897466666666666,NA,r,9,NA,animation_slider
1563,,21,Thu Jan 28 2021 02:00:15 GMT+0000 (Greenwich Mean Time),,54,,ry,certain,51,uncertain1,NA,none,NA,r,NA,NA,NA,NA,1611801009016,impossible,NA,19,21|20|8|51,,8,Graduated High School,Please indicate how likely you think the shown events will occur. Click on RUN to see!,Czech,5fc9a824ca46654eeaab0f6e,44738,male,2,1611799215168,,NA,NA,y,29.897466666666666,NA,r,20,NA,animation_slider
1563,,100,Thu Jan 28 2021 02:00:15 GMT+0000 (Greenwich Mean Time),,54,,ry,certain,0,distance1,NA,none,NA,y,NA,NA,NA,NA,1611801009016,impossible,NA,19,100|0|0|0,,0,Graduated High School,Please indicate how likely you think the shown events will occur. Click on RUN to see!,Czech,5fc9a824ca46654eeaab0f6e,45702,male,3,1611799215168,,NA,NA,y,29.897466666666666,NA,r,0,NA,animation_slider
1563,,18,Thu Jan 28 2021 02:00:15 GMT+0000 (Greenwich Mean Time),,54,,ry,certain,26,distance0,NA,none,NA,r,NA,NA,NA,NA,1611801009016,impossible,NA,19,18|44|13|26,,13,Graduated High School,Please indicate how likely you think the shown events will occur. Click on RUN to see!,Czech,5fc9a824ca46654eeaab0f6e,43924,male,4,1611799215168,,NA,NA,y,29.897466666666666,NA,r,44,NA,animation_slider
1563,,26,Thu Jan 28 2021 02:00:15 GMT+0000 (Greenwich Mean Time),,54,,ry,certain,0,ind0,NA,none,NA,r,NA,NA,NA,NA,1611801009016,impossible,NA,19,26|57|17|0,,17,Graduated High School,Please indicate how likely you think the shown events will occur. Click on RUN to see!,Czech,5fc9a824ca46654eeaab0f6e,40586,male,5,1611799215168,,NA,NA,y,29.897466666666666,NA,r,57,NA,animation_slider
1563,,30,Thu Jan 28 2021 02:00:15 GMT+0000 (Greenwich Mean Time),,54,,ry,certain,0,ssw0,NA,none,NA,ry,NA,NA,NA,NA,1611801009016,impossible,NA,19,30|5|65|0,,65,Graduated High School,Please indicate how likely you think the shown events will occur. Click on RUN to see!,Czech,5fc9a824ca46654eeaab0f6e,68517,male,6,1611799215168,,NA,NA,y,29.897466666666666,NA,r,5,NA,animation_slider
1563,,38,Thu Jan 28 2021 02:00:15 GMT+0000 (Greenwich Mean Time),,54,,ry,certain,12,ac1,NA,none,NA,y,NA,NA,NA,NA,1611801009016,impossible,NA,19,38|19|32|12,,32,Graduated High School,Please indicate how likely you think the shown events will occur. Click on RUN to see!,Czech,5fc9a824ca46654eeaab0f6e,33813,male,7,1611799215168,,NA,NA,y,29.897466666666666,NA,r,19,NA,animation_slider
1563,,11,Thu Jan 28 2021 02:00:15 GMT+0000 (Greenwich Mean Time),,54,,ry,certain,26,ac2,NA,none,NA,ry,NA,NA,NA,NA,1611801009016,impossible,NA,19,11|49|13|26,,13,Graduated High School,Please indicate how likely you think the shown events will occur. Click on RUN to see!,Czech,5fc9a824ca46654eeaab0f6e,38023,male,8,1611799215168,,NA,NA,y,29.897466666666666,NA,r,49,NA,animation_slider
1563,,24,Thu Jan 28 2021 02:00:15 GMT+0000 (Greenwich Mean Time),,54,,ry,certain,22,uncertain0,NA,none,NA,y,NA,NA,NA,NA,1611801009016,impossible,NA,19,24|11|43|22,,43,Graduated High School,Please indicate how likely you think the shown events will occur. Click on RUN to see!,Czech,5fc9a824ca46654eeaab0f6e,29419,male,9,1611799215168,,NA,NA,y,29.897466666666666,NA,r,11,NA,animation_slider
1563,,44,Thu Jan 28 2021 02:00:15 GMT+0000 (Greenwich Mean Time),,54,,ry,certain,11,ssw1,NA,none,NA,none,NA,NA,NA,NA,1611801009016,impossible,NA,19,44|29|16|11,,16,Graduated High School,Please indicate how likely you think the shown events will occur. Click on RUN to see!,Czech,5fc9a824ca46654eeaab0f6e,41251,male,10,1611799215168,,NA,NA,y,29.897466666666666,NA,r,29,NA,animation_slider
1563,,21,Thu Jan 28 2021 02:00:15 GMT+0000 (Greenwich Mean Time),,54,,ry,certain,8,ac0,NA,none,NA,ry,NA,NA,NA,NA,1611801009016,impossible,NA,19,21|53|18|8,,18,Graduated High School,Please indicate how likely you think the shown events will occur. Click on RUN to see!,Czech,5fc9a824ca46654eeaab0f6e,42120,male,11,1611799215168,,NA,NA,y,29.897466666666666,NA,r,53,NA,animation_slider
1563,,6,Thu Jan 28 2021 02:00:15 GMT+0000 (Greenwich Mean Time),,54,,ry,certain,57,ac3,NA,none,NA,none,NA,NA,NA,NA,1611801009016,impossible,NA,19,6|16|21|57,,21,Graduated High School,Please indicate how likely you think the shown events will occur. Click on RUN to see!,Czech,5fc9a824ca46654eeaab0f6e,46050,male,12,1611799215168,,NA,NA,y,29.897466666666666,NA,r,16,NA,animation_slider
1563,,47,Thu Jan 28 2021 02:00:15 GMT+0000 (Greenwich Mean Time),,54,,ry,certain,12,ind1,NA,none,NA,ry,NA,NA,NA,NA,1611801009016,impossible,NA,19,47|16|25|12,,25,Graduated High School,Please indicate how likely you think the shown events will occur. Click on RUN to see!,Czech,5fc9a824ca46654eeaab0f6e,40736,male,13,1611799215168,,NA,NA,y,29.897466666666666,NA,r,16,NA,animation_slider
1563,,27,Thu Jan 28 2021 02:00:15 GMT+0000 (Greenwich Mean Time),,54,,ry,certain,11,uncertain2,NA,none,NA,r,NA,NA,NA,NA,1611801009016,impossible,NA,19,27|44|19|11,,19,Graduated High School,Please indicate how likely you think the shown events will occur. Click on RUN to see!,Czech,5fc9a824ca46654eeaab0f6e,38646,male,14,1611799215168,,NA,NA,y,29.897466666666666,NA,r,44,NA,animation_slider
1563,,the green block falls and the blue block does not fall,Thu Jan 28 2021 02:00:15 GMT+0000 (Greenwich Mean Time),NA,54,group2,,,1,ind2,NA,,NA,,NA,NA,NA,NA,1611801009016,,NA,19,the green block falls and the blue block does not fall|,,6,Graduated High School,TRY OUT EXAMPLE &mdash;Task 2: Please describe to a critical friend as adequately as possible <br/>what happens with the blue and the green block in the picture.,Czech,5fc9a824ca46654eeaab0f6e,83329,male,1,1611799215168,stimuli/img/train/ind2_test_colors.png,6,NA,,29.897466666666666,NA,,,NA,fridge_train
1563,,13,Thu Jan 28 2021 02:00:15 GMT+0000 (Greenwich Mean Time),NA,54,group2,bg,certain,35,if2_ll,NA,none,NA,,NA,NA,NA,NA,1611801009016,impossible,NA,19,13|22|30|35,,30,Graduated High School,Task 1: Please indicate how likely you think the shown events will occur.,Czech,5fc9a824ca46654eeaab0f6e,38296,male,2,1611799215168,stimuli/img/group2/if2_ll.png,NA,NA,g,29.897466666666666,NA,b,22,NA,multiple_slider0
1563,,neither block falls,Thu Jan 28 2021 02:00:15 GMT+0000 (Greenwich Mean Time),NA,54,group2,,,1,if2_ll,NA,,NA,,NA,NA,NA,NA,1611801009016,,NA,19,neither block falls|,,2,Graduated High School,Task 2: Please describe to a critical friend as adequately as possible <br/>what happens with the blue and the green block in the picture.,Czech,5fc9a824ca46654eeaab0f6e,17303,male,3,1611799215168,stimuli/img/group2/if2_ll.png,2,NA,,29.897466666666666,NA,,,NA,fridge_view0
1563,,17,Thu Jan 28 2021 02:00:15 GMT+0000 (Greenwich Mean Time),NA,54,group2,bg,certain,40,if1_u-Lh,NA,none,NA,,NA,NA,NA,NA,1611801009016,impossible,NA,19,17|29|13|40,,13,Graduated High School,Task 1: Please indicate how likely you think the shown events will occur.,Czech,5fc9a824ca46654eeaab0f6e,38652,male,4,1611799215168,stimuli/img/group2/if1_u-Lh.png,NA,NA,g,29.897466666666666,NA,b,29,NA,multiple_slider1
1563,,neither block falls,Thu Jan 28 2021 02:00:15 GMT+0000 (Greenwich Mean Time),NA,54,group2,,,1,if1_u-Lh,NA,,NA,,NA,NA,NA,NA,1611801009016,,NA,19,neither block falls|,,2,Graduated High School,Task 2: Please describe to a critical friend as adequately as possible <br/>what happens with the blue and the green block in the picture.,Czech,5fc9a824ca46654eeaab0f6e,11820,male,5,1611799215168,stimuli/img/group2/if1_u-Lh.png,2,NA,,29.897466666666666,NA,,,NA,fridge_view1
1563,,NA,Thu Jan 28 2021 02:00:15 GMT+0000 (Greenwich Mean Time),NA,54,NA,NA,NA,NA,blue-green,.,NA,grey,blue,NA,blue,green,black,1611801009016,NA,The upper block is ,19,blue,,NA,Graduated High School,What's the color of the <b>upper</b> block on the picture?,Czech,5fc9a824ca46654eeaab0f6e,4669,male,4,1611799215168,stimuli/img/color_vision/blue_green.png,NA,yellow,NA,29.897466666666666,purple,NA,NA,red,color-vision0
1563,,12,Thu Jan 28 2021 02:00:15 GMT+0000 (Greenwich Mean Time),NA,54,group1,bg,certain,44,independent_ul,NA,none,NA,,NA,NA,NA,NA,1611801009016,impossible,NA,19,12|10|34|44,,34,Graduated High School,Task 1: Please indicate how likely you think the shown events will occur.,Czech,5fc9a824ca46654eeaab0f6e,33025,male,6,1611799215168,stimuli/img/group1/independent_ul.png,NA,NA,g,29.897466666666666,NA,b,10,NA,multiple_slider2
1563,,the green block might fall,Thu Jan 28 2021 02:00:15 GMT+0000 (Greenwich Mean Time),NA,54,group1,,,1,independent_ul,NA,,NA,,NA,NA,NA,NA,1611801009016,,NA,19,the green block might fall|,,3,Graduated High School,Task 2: Please describe to a critical friend as adequately as possible <br/>what happens with the blue and the green block in the picture.,Czech,5fc9a824ca46654eeaab0f6e,20922,male,7,1611799215168,stimuli/img/group1/independent_ul.png,3,NA,,29.897466666666666,NA,,,NA,fridge_view2
1563,,56,Thu Jan 28 2021 02:00:15 GMT+0000 (Greenwich Mean Time),NA,54,group1,bg,certain,7,if1_hh,NA,none,NA,,NA,NA,NA,NA,1611801009016,impossible,NA,19,56|20|17|7,,17,Graduated High School,Task 1: Please indicate how likely you think the shown events will occur.,Czech,5fc9a824ca46654eeaab0f6e,19809,male,8,1611799215168,stimuli/img/group1/if1_hh.png,NA,NA,g,29.897466666666666,NA,b,20,NA,multiple_slider3
1563,,both blocks fall,Thu Jan 28 2021 02:00:15 GMT+0000 (Greenwich Mean Time),NA,54,group1,,,1,if1_hh,NA,,NA,,NA,NA,NA,NA,1611801009016,,NA,19,both blocks fall|,,2,Graduated High School,Task 2: Please describe to a critical friend as adequately as possible <br/>what happens with the blue and the green block in the picture.,Czech,5fc9a824ca46654eeaab0f6e,5381,male,9,1611799215168,stimuli/img/group1/if1_hh.png,2,NA,,29.897466666666666,NA,,,NA,fridge_view3
1563,,NA,Thu Jan 28 2021 02:00:15 GMT+0000 (Greenwich Mean Time),NA,54,NA,NA,NA,NA,blue,.,NA,grey,blue,NA,blue,green,black,1611801009016,NA,The block is ,19,blue,,NA,Graduated High School,What's the color of the block on the picture?,Czech,5fc9a824ca46654eeaab0f6e,4335,male,5,1611799215168,stimuli/img/color_vision/blue.png,NA,yellow,NA,29.897466666666666,purple,NA,NA,red,color-vision1
1563,,35,Thu Jan 28 2021 02:00:15 GMT+0000 (Greenwich Mean Time),NA,54,group1,bg,certain,10,independent_hh,NA,none,NA,,NA,NA,NA,NA,1611801009016,impossible,NA,19,35|12|43|10,,43,Graduated High School,Task 1: Please indicate how likely you think the shown events will occur.,Czech,5fc9a824ca46654eeaab0f6e,23175,male,10,1611799215168,stimuli/img/group1/independent_hh.png,NA,NA,g,29.897466666666666,NA,b,12,NA,multiple_slider4
1563,,the green block falls but the blue block does not,Thu Jan 28 2021 02:00:15 GMT+0000 (Greenwich Mean Time),NA,54,group1,,,1,independent_hh,NA,,NA,,NA,NA,NA,NA,1611801009016,,NA,19,the green block falls but the blue block does not|,,5,Graduated High School,Task 2: Please describe to a critical friend as adequately as possible <br/>what happens with the blue and the green block in the picture.,Czech,5fc9a824ca46654eeaab0f6e,15425,male,11,1611799215168,stimuli/img/group1/independent_hh.png,5,NA,,29.897466666666666,NA,,,NA,fridge_view4
1563,,16,Thu Jan 28 2021 02:00:15 GMT+0000 (Greenwich Mean Time),NA,54,group1,bg,certain,53,if2_u-Ll,NA,none,NA,,NA,NA,NA,NA,1611801009016,impossible,NA,19,16|16|15|53,,15,Graduated High School,Task 1: Please indicate how likely you think the shown events will occur.,Czech,5fc9a824ca46654eeaab0f6e,31584,male,12,1611799215168,stimuli/img/group1/if2_u-Ll.png,NA,NA,g,29.897466666666666,NA,b,16,NA,multiple_slider5
1563,,neither block falls,Thu Jan 28 2021 02:00:15 GMT+0000 (Greenwich Mean Time),NA,54,group1,,,1,if2_u-Ll,NA,,NA,,NA,NA,NA,NA,1611801009016,,NA,19,neither block falls|,,2,Graduated High School,Task 2: Please describe to a critical friend as adequately as possible <br/>what happens with the blue and the green block in the picture.,Czech,5fc9a824ca46654eeaab0f6e,5673,male,13,1611799215168,stimuli/img/group1/if2_u-Ll.png,2,NA,,29.897466666666666,NA,,,NA,fridge_view5
1563,,NA,Thu Jan 28 2021 02:00:15 GMT+0000 (Greenwich Mean Time),NA,54,NA,NA,NA,NA,red-yellow,.,NA,grey,red,NA,blue,green,black,1611801009016,NA,The upper block is ,19,red,,NA,Graduated High School,What's the color of the <b>upper</b> block on the picture?,Czech,5fc9a824ca46654eeaab0f6e,4296,male,6,1611799215168,stimuli/img/color_vision/red_yellow.png,NA,yellow,NA,29.897466666666666,purple,NA,NA,red,color-vision2
1563,,32,Thu Jan 28 2021 02:00:15 GMT+0000 (Greenwich Mean Time),NA,54,group1,bg,certain,8,independent_hl,NA,none,NA,,NA,NA,NA,NA,1611801009016,impossible,NA,19,32|43|17|8,,17,Graduated High School,Task 1: Please indicate how likely you think the shown events will occur.,Czech,5fc9a824ca46654eeaab0f6e,27743,male,14,1611799215168,stimuli/img/group1/independent_hl.png,NA,NA,g,29.897466666666666,NA,b,43,NA,multiple_slider6
1563,,the blue block falls but the green block does not fall,Thu Jan 28 2021 02:00:15 GMT+0000 (Greenwich Mean Time),NA,54,group1,,,1,independent_hl,NA,,NA,,NA,NA,NA,NA,1611801009016,,NA,19,the blue block falls but the green block does not fall|,,6,Graduated High School,Task 2: Please describe to a critical friend as adequately as possible <br/>what happens with the blue and the green block in the picture.,Czech,5fc9a824ca46654eeaab0f6e,16958,male,15,1611799215168,stimuli/img/group1/independent_hl.png,6,NA,,29.897466666666666,NA,,,NA,fridge_view6
1563,,12,Thu Jan 28 2021 02:00:15 GMT+0000 (Greenwich Mean Time),NA,54,group1,bg,certain,56,if1_lh,NA,none,NA,,NA,NA,NA,NA,1611801009016,impossible,NA,19,12|17|15|56,,15,Graduated High School,Task 1: Please indicate how likely you think the shown events will occur.,Czech,5fc9a824ca46654eeaab0f6e,30576,male,16,1611799215168,stimuli/img/group1/if1_lh.png,NA,NA,g,29.897466666666666,NA,b,17,NA,multiple_slider7
1563,,neither block falls,Thu Jan 28 2021 02:00:15 GMT+0000 (Greenwich Mean Time),NA,54,group1,,,1,if1_lh,NA,,NA,,NA,NA,NA,NA,1611801009016,,NA,19,neither block falls|,,2,Graduated High School,Task 2: Please describe to a critical friend as adequately as possible <br/>what happens with the blue and the green block in the picture.,Czech,5fc9a824ca46654eeaab0f6e,12225,male,17,1611799215168,stimuli/img/group1/if1_lh.png,2,NA,,29.897466666666666,NA,,,NA,fridge_view7
1563,,NA,Thu Jan 28 2021 02:00:15 GMT+0000 (Greenwich Mean Time),NA,54,NA,NA,NA,NA,yellow-red,.,NA,grey,yellow,NA,blue,green,black,1611801009016,NA,The upper block is ,19,yellow,,NA,Graduated High School,What's the color of the <b>upper</b> block on the picture?,Czech,5fc9a824ca46654eeaab0f6e,6067,male,7,1611799215168,stimuli/img/color_vision/yellow_red.png,NA,yellow,NA,29.897466666666666,purple,NA,NA,red,color-vision3
1563,,32,Thu Jan 28 2021 02:00:15 GMT+0000 (Greenwich Mean Time),NA,54,group1,bg,certain,10,if2_ul,NA,none,NA,,NA,NA,NA,NA,1611801009016,impossible,NA,19,32|29|29|10,,29,Graduated High School,Task 1: Please indicate how likely you think the shown events will occur.,Czech,5fc9a824ca46654eeaab0f6e,29838,male,18,1611799215168,stimuli/img/group1/if2_ul.png,NA,NA,g,29.897466666666666,NA,b,29,NA,multiple_slider8
1563,,both blocks fall,Thu Jan 28 2021 02:00:15 GMT+0000 (Greenwich Mean Time),NA,54,group1,,,1,if2_ul,NA,,NA,,NA,NA,NA,NA,1611801009016,,NA,19,both blocks fall|,,2,Graduated High School,Task 2: Please describe to a critical friend as adequately as possible <br/>what happens with the blue and the green block in the picture.,Czech,5fc9a824ca46654eeaab0f6e,32583,male,19,1611799215168,stimuli/img/group1/if2_ul.png,2,NA,,29.897466666666666,NA,,,NA,fridge_view8
1563,,37,Thu Jan 28 2021 02:00:15 GMT+0000 (Greenwich Mean Time),NA,54,group2,bg,certain,8,independent_uh,NA,none,NA,,NA,NA,NA,NA,1611801009016,impossible,NA,19,37|25|30|8,,30,Graduated High School,Task 1: Please indicate how likely you think the shown events will occur.,Czech,5fc9a824ca46654eeaab0f6e,17179,male,20,1611799215168,stimuli/img/group2/independent_uh.png,NA,NA,g,29.897466666666666,NA,b,25,NA,multiple_slider9
1563,,both blocks fall,Thu Jan 28 2021 02:00:15 GMT+0000 (Greenwich Mean Time),NA,54,group2,,,1,independent_uh,NA,,NA,,NA,NA,NA,NA,1611801009016,,NA,19,both blocks fall|,,2,Graduated High School,Task 2: Please describe to a critical friend as adequately as possible <br/>what happens with the blue and the green block in the picture.,Czech,5fc9a824ca46654eeaab0f6e,3148,male,21,1611799215168,stimuli/img/group2/independent_uh.png,2,NA,,29.897466666666666,NA,,,NA,fridge_view9
1563,,NA,Thu Jan 28 2021 02:00:15 GMT+0000 (Greenwich Mean Time),NA,54,NA,NA,NA,NA,green-blue,.,NA,grey,green,NA,blue,green,black,1611801009016,NA,The upper block is ,19,green,,NA,Graduated High School,What's the color of the <b>upper</b> block on the picture?,Czech,5fc9a824ca46654eeaab0f6e,4420,male,8,1611799215168,stimuli/img/color_vision/green_blue.png,NA,yellow,NA,29.897466666666666,purple,NA,NA,red,color-vision4
1563,,49,Thu Jan 28 2021 02:00:15 GMT+0000 (Greenwich Mean Time),NA,54,group1,bg,certain,4,if2_hl,NA,none,NA,,NA,NA,NA,NA,1611801009016,impossible,NA,19,49|31|16|4,,16,Graduated High School,Task 1: Please indicate how likely you think the shown events will occur.,Czech,5fc9a824ca46654eeaab0f6e,14880,male,22,1611799215168,stimuli/img/group1/if2_hl.png,NA,NA,g,29.897466666666666,NA,b,31,NA,multiple_slider10
1563,,both blocks fall,Thu Jan 28 2021 02:00:15 GMT+0000 (Greenwich Mean Time),NA,54,group1,,,1,if2_hl,NA,,NA,,NA,NA,NA,NA,1611801009016,,NA,19,both blocks fall|,,2,Graduated High School,Task 2: Please describe to a critical friend as adequately as possible <br/>what happens with the blue and the green block in the picture.,Czech,5fc9a824ca46654eeaab0f6e,3011,male,23,1611799215168,stimuli/img/group1/if2_hl.png,2,NA,,29.897466666666666,NA,,,NA,fridge_view10
1563,,31,Thu Jan 28 2021 02:00:15 GMT+0000 (Greenwich Mean Time),NA,54,group1,bg,certain,44,if1_uh,NA,none,NA,,NA,NA,NA,NA,1611801009016,impossible,NA,19,31|21|4|44,,4,Graduated High School,Task 1: Please indicate how likely you think the shown events will occur.,Czech,5fc9a824ca46654eeaab0f6e,31008,male,24,1611799215168,stimuli/img/group1/if1_uh.png,NA,NA,g,29.897466666666666,NA,b,21,NA,multiple_slider11
1563,,neither block falls,Thu Jan 28 2021 02:00:15 GMT+0000 (Greenwich Mean Time),NA,54,group1,,,1,if1_uh,NA,,NA,,NA,NA,NA,NA,1611801009016,,NA,19,neither block falls|,,2,Graduated High School,Task 2: Please describe to a critical friend as adequately as possible <br/>what happens with the blue and the green block in the picture.,Czech,5fc9a824ca46654eeaab0f6e,7327,male,25,1611799215168,stimuli/img/group1/if1_uh.png,2,NA,,29.897466666666666,NA,,,NA,fridge_view11
1563,,NA,Thu Jan 28 2021 02:00:15 GMT+0000 (Greenwich Mean Time),NA,54,NA,NA,NA,NA,green,.,NA,grey,green,NA,blue,green,black,1611801009016,NA,The block is ,19,green,,NA,Graduated High School,What's the color of the block on the picture?,Czech,5fc9a824ca46654eeaab0f6e,3455,male,9,1611799215168,stimuli/img/color_vision/green.png,NA,yellow,NA,29.897466666666666,purple,NA,NA,red,color-vision5
1563,,51,Thu Jan 28 2021 02:00:15 GMT+0000 (Greenwich Mean Time),NA,54,group1,bg,certain,16,independent_ll,NA,none,NA,,NA,NA,NA,NA,1611801009016,impossible,NA,19,51|17|16|16,,16,Graduated High School,Task 1: Please indicate how likely you think the shown events will occur.,Czech,5fc9a824ca46654eeaab0f6e,22449,male,26,1611799215168,stimuli/img/group1/independent_ll.png,NA,NA,g,29.897466666666666,NA,b,17,NA,multiple_slider12
1563,,neither block falls,Thu Jan 28 2021 02:00:15 GMT+0000 (Greenwich Mean Time),NA,54,group1,,,1,independent_ll,NA,,NA,,NA,NA,NA,NA,1611801009016,,NA,19,neither block falls|,,2,Graduated High School,Task 2: Please describe to a critical friend as adequately as possible <br/>what happens with the blue and the green block in the picture.,Czech,5fc9a824ca46654eeaab0f6e,6988,male,27,1611799215168,stimuli/img/group1/independent_ll.png,2,NA,,29.897466666666666,NA,,,NA,fridge_view12
1562,,NA,Thu Jan 28 2021 14:45:39 GMT+1300 (New Zealand Daylight Time),NA,54,NA,NA,NA,NA,not-red-yellow,.,NA,both,ynr,NA,ynr,none,rny,1611799701555,NA,The icon represents the event that ,48,ynr,,NA,Higher Degree,What event does this icon represent?,English,5ee454ad40c72e152991826e,7078,male,1,1611798339230,stimuli/img/icons/not-red-yellow.png,NA,NA,NA,22.705416666666668,NA,NA,NA,NA,attention_check
1562,,NA,Thu Jan 28 2021 14:45:39 GMT+1300 (New Zealand Daylight Time),NA,54,NA,NA,NA,NA,not-yellow-red,.,NA,none,rny,NA,both,ynr,rny,1611799701555,NA,The icon represents the event that ,48,rny,,NA,Higher Degree,What event does this icon represent?,English,5ee454ad40c72e152991826e,4383,male,2,1611798339230,stimuli/img/icons/red-not-yellow.png,NA,NA,NA,22.705416666666668,NA,NA,NA,NA,attention_check
1562,,NA,Thu Jan 28 2021 14:45:39 GMT+1300 (New Zealand Daylight Time),NA,54,NA,NA,NA,NA,red-yellow,.,NA,both,both,NA,rny,ynr,none,1611799701555,NA,The icon represents the event that ,48,both,,NA,Higher Degree,What event does this icon represent?,English,5ee454ad40c72e152991826e,3733,male,3,1611798339230,stimuli/img/icons/red-yellow.png,NA,NA,NA,22.705416666666668,NA,NA,NA,NA,attention_check
1562,The sliders represent the beliefs of a person who <br/><b>thinks</b> that <b>red falls</b> and that <b>yellow</b> is <b>more likely to fall than not to fall</b>.,NA,Thu Jan 28 2021 14:45:39 GMT+1300 (New Zealand Daylight Time),NA,54,NA,NA,NA,NA,sc_yes6_0,NA,NA,NA,yes,</br>The sliders represent the beliefs of a person who <br/><b>thinks</b> that <b>red falls</b> and that <b>yellow</b> is <b>more likely to fall than not to fall</b>.,no,NA,yes,1611799701555,NA,NA,48,yes,,NA,Higher Degree,Please click on the button with the correct answer.,English,5ee454ad40c72e152991826e,36783,male,1,1611798339230,stimuli/img/slider-choices/sc_yes6_0.png,NA,NA,NA,22.705416666666668,NA,NA,NA,NA,slider_choice_training
1562,The sliders represent the beliefs of a person who <br/><b>is very confident</b> that <b>yellow falls</b> but is <b>uncertain whether or not red falls</b>.</b>,NA,Thu Jan 28 2021 14:45:39 GMT+1300 (New Zealand Daylight Time),NA,54,NA,NA,NA,NA,no_sc_yes4_0,NA,NA,NA,no,</br>The sliders represent the beliefs of a person who <br/><b>is very confident</b> that <b><i>RED</i> falls</b> but is <b>uncertain whether or not <i>YELLOW</i> falls</b>.,no,NA,yes,1611799701555,NA,NA,48,no,,NA,Higher Degree,Please click on the button with the correct answer.,English,5ee454ad40c72e152991826e,8233,male,2,1611798339230,stimuli/img/slider-choices/sc_yes4_0.png,NA,NA,NA,22.705416666666668,NA,NA,NA,NA,slider_choice_training
1562,The sliders represent the beliefs of a person who <br/><b>thinks</b> that <b>yellow falls </b>but <b>probably not red</b>.,NA,Thu Jan 28 2021 14:45:39 GMT+1300 (New Zealand Daylight Time),NA,54,NA,NA,NA,NA,sc_yes5_1,NA,NA,NA,yes,</br>The sliders represent the beliefs of a person who <br/><b>thinks</b> that <b>yellow falls </b>but <b>probably not red</b>.,no,NA,yes,1611799701555,NA,NA,48,yes,,NA,Higher Degree,Please click on the button with the correct answer.,English,5ee454ad40c72e152991826e,14444,male,3,1611798339230,stimuli/img/slider-choices/sc_yes5_1.png,NA,NA,NA,22.705416666666668,NA,NA,NA,NA,slider_choice_training
1562,The sliders represent the beliefs of a person who <br/><b>thinks</b> that <b>yellow falls</b> but is <b>uncertain whether or not red falls</b>.,NA,Thu Jan 28 2021 14:45:39 GMT+1300 (New Zealand Daylight Time),NA,54,NA,NA,NA,NA,sc_yes4_1,NA,NA,NA,yes,</br>The sliders represent the beliefs of a person who <br/><b>thinks</b> that <b>yellow falls</b> but is <b>uncertain whether or not red falls</b>.,no,NA,yes,1611799701555,NA,NA,48,yes,,NA,Higher Degree,Please click on the button with the correct answer.,English,5ee454ad40c72e152991826e,11937,male,4,1611798339230,stimuli/img/slider-choices/sc_yes4_1.png,NA,NA,NA,22.705416666666668,NA,NA,NA,NA,slider_choice_training
1562,The sliders represent the beliefs of a person who <br/>is <b>pretty certain</b> that the <b>yellow block falls</b> but <b>not the red</b>.</b>,NA,Thu Jan 28 2021 14:45:39 GMT+1300 (New Zealand Daylight Time),NA,54,NA,NA,NA,NA,no_sc_yes3_0,NA,NA,NA,no,</br>The sliders represent the beliefs of a person who <br/>is <b>pretty certain</b> that the <b><i>RED</i> block falls</b> but <b>not the <i>YELLOW</i></b>.,no,NA,yes,1611799701555,NA,NA,48,no,,NA,Higher Degree,Please click on the button with the correct answer.,English,5ee454ad40c72e152991826e,10427,male,5,1611798339230,stimuli/img/slider-choices/sc_yes3_0.png,NA,NA,NA,22.705416666666668,NA,NA,NA,NA,slider_choice_training
1562,The sliders represent the beliefs of a person who <br/>is <b>pretty certain</b> that the <b>yellow block falls</b> but <b>not the red</b>.,NA,Thu Jan 28 2021 14:45:39 GMT+1300 (New Zealand Daylight Time),NA,54,NA,NA,NA,NA,sc_yes3_1,NA,NA,NA,yes,</br>The sliders represent the beliefs of a person who <br/>is <b>pretty certain</b> that the <b>yellow block falls</b> but <b>not the red</b>.,no,NA,yes,1611799701555,NA,NA,48,yes,,NA,Higher Degree,Please click on the button with the correct answer.,English,5ee454ad40c72e152991826e,10261,male,6,1611798339230,stimuli/img/slider-choices/sc_yes3_1.png,NA,NA,NA,22.705416666666668,NA,NA,NA,NA,slider_choice_training
1562,The sliders represent the beliefs of a person who <br/><b>thinks</b> that <b>either both</b> or <b>none</b> of the two blocks fall <br/>with a <b>tendency</b> towards the event that <b>both blocks fall</b>.,NA,Thu Jan 28 2021 14:45:39 GMT+1300 (New Zealand Daylight Time),NA,54,NA,NA,NA,NA,sc_yes2_0,NA,NA,NA,yes,</br>The sliders represent the beliefs of a person who <br/><b>thinks</b> that <b>either both</b> or <b>none</b> of the two blocks fall <br/>with a <b>tendency</b> towards the event that <b>both blocks fall</b>.,no,NA,yes,1611799701555,NA,NA,48,no,,NA,Higher Degree,Please click on the button with the correct answer.,English,5ee454ad40c72e152991826e,13316,male,7,1611798339230,stimuli/img/slider-choices/sc_yes2_0.png,NA,NA,NA,22.705416666666668,NA,NA,NA,NA,slider_choice_training
1562,The sliders represent the beliefs of a person who <br/><b>is very confident</b> that <b>either both</b> or <b>none</b> of the two blocks fall <br/>with a <b>tendency</b> towards the event that <b>both blocks fall</b>.</b>,NA,Thu Jan 28 2021 14:45:39 GMT+1300 (New Zealand Daylight Time),NA,54,NA,NA,NA,NA,no_sc_yes2_1-not0,NA,NA,NA,no,</br>The sliders represent the beliefs of a person who <br/><b>is very confident</b> that <b>either both</b> or <b>none</b> of the two blocks fall <br/>with a <b>tendency</b> towards the event that <b>no block falls</b>.,no,NA,yes,1611799701555,NA,NA,48,no,,NA,Higher Degree,Please click on the button with the correct answer.,English,5ee454ad40c72e152991826e,14442,male,8,1611798339230,stimuli/img/slider-choices/sc_yes2_1-not0.png,NA,NA,NA,22.705416666666668,NA,NA,NA,NA,slider_choice_training
1562,The sliders represent the beliefs of a person who <br/><b>thinks</b> that <b>either both blocks</b> or <b>none</b> of the two blocks fall.,NA,Thu Jan 28 2021 14:45:39 GMT+1300 (New Zealand Daylight Time),NA,54,NA,NA,NA,NA,sc_yes1,NA,NA,NA,yes,</br>The sliders represent the beliefs of a person who <br/><b>thinks</b> that <b>either both blocks</b> or <b>none</b> of the two blocks fall.,no,NA,yes,1611799701555,NA,NA,48,yes,,NA,Higher Degree,Please click on the button with the correct answer.,English,5ee454ad40c72e152991826e,7806,male,9,1611798339230,stimuli/img/slider-choices/sc_yes1.png,NA,NA,NA,22.705416666666668,NA,NA,NA,NA,slider_choice_training
1562,"The sliders represent the beliefs of a person who <br/>is <b>completely uncertain</b> whether the blocks fall, that is the person has <b>no tendency</b> towards any of the four events.",NA,Thu Jan 28 2021 14:45:39 GMT+1300 (New Zealand Daylight Time),NA,54,NA,NA,NA,NA,sc_yes0,NA,NA,NA,yes,"</br>The sliders represent the beliefs of a person who <br/>is <b>completely uncertain</b> whether the blocks fall, that is the person has <b>no tendency</b> towards any of the four events.",no,NA,yes,1611799701555,NA,NA,48,yes,,NA,Higher Degree,Please click on the button with the correct answer.,English,5ee454ad40c72e152991826e,3920,male,10,1611798339230,stimuli/img/slider-choices/sc_yes0.png,NA,NA,NA,22.705416666666668,NA,NA,NA,NA,slider_choice_training
1562,,27,Thu Jan 28 2021 14:45:39 GMT+1300 (New Zealand Daylight Time),,54,,ry,certain,19,uncertain3,NA,none,NA,y,NA,NA,NA,NA,1611799701555,impossible,NA,48,27|18|36|19,,36,Higher Degree,Please indicate how likely you think the shown events will occur. Click on RUN to see!,English,5ee454ad40c72e152991826e,79296,male,1,1611798339230,,NA,NA,y,22.705416666666668,NA,r,18,NA,animation_slider
1562,,6,Thu Jan 28 2021 14:45:39 GMT+1300 (New Zealand Daylight Time),,54,,ry,certain,30,uncertain1,NA,none,NA,r,NA,NA,NA,NA,1611799701555,impossible,NA,48,6|56|7|30,,7,Higher Degree,Please indicate how likely you think the shown events will occur. Click on RUN to see!,English,5ee454ad40c72e152991826e,41136,male,2,1611798339230,,NA,NA,y,22.705416666666668,NA,r,56,NA,animation_slider
1562,,50,Thu Jan 28 2021 14:45:39 GMT+1300 (New Zealand Daylight Time),,54,,ry,certain,50,distance0,NA,none,NA,r,NA,NA,NA,NA,1611799701555,impossible,NA,48,50|0|0|50,,0,Higher Degree,Please indicate how likely you think the shown events will occur. Click on RUN to see!,English,5ee454ad40c72e152991826e,49012,male,3,1611798339230,,NA,NA,y,22.705416666666668,NA,r,0,NA,animation_slider
1562,,60,Thu Jan 28 2021 14:45:39 GMT+1300 (New Zealand Daylight Time),,54,,ry,certain,40,distance1,NA,none,NA,y,NA,NA,NA,NA,1611799701555,impossible,NA,48,60|0|0|40,,0,Higher Degree,Please indicate how likely you think the shown events will occur. Click on RUN to see!,English,5ee454ad40c72e152991826e,38081,male,4,1611798339230,,NA,NA,y,22.705416666666668,NA,r,0,NA,animation_slider
1562,,25,Thu Jan 28 2021 14:45:39 GMT+1300 (New Zealand Daylight Time),,54,,ry,certain,25,ssw1,NA,none,NA,none,NA,NA,NA,NA,1611799701555,impossible,NA,48,25|25|25|25,,25,Higher Degree,Please indicate how likely you think the shown events will occur. Click on RUN to see!,English,5ee454ad40c72e152991826e,23250,male,5,1611798339230,,NA,NA,y,22.705416666666668,NA,r,25,NA,animation_slider
1562,,8,Thu Jan 28 2021 14:45:39 GMT+1300 (New Zealand Daylight Time),,54,,ry,certain,24,ssw0,NA,none,NA,ry,NA,NA,NA,NA,1611799701555,impossible,NA,48,8|24|45|24,,45,Higher Degree,Please indicate how likely you think the shown events will occur. Click on RUN to see!,English,5ee454ad40c72e152991826e,34221,male,6,1611798339230,,NA,NA,y,22.705416666666668,NA,r,24,NA,animation_slider
1562,,27,Thu Jan 28 2021 14:45:39 GMT+1300 (New Zealand Daylight Time),,54,,ry,certain,27,ac1,NA,none,NA,y,NA,NA,NA,NA,1611799701555,impossible,NA,48,27|0|47|27,,47,Higher Degree,Please indicate how likely you think the shown events will occur. Click on RUN to see!,English,5ee454ad40c72e152991826e,36173,male,7,1611798339230,,NA,NA,y,22.705416666666668,NA,r,0,NA,animation_slider
1562,,79,Thu Jan 28 2021 14:45:39 GMT+1300 (New Zealand Daylight Time),,54,,ry,certain,0,ac0,NA,none,NA,ry,NA,NA,NA,NA,1611799701555,impossible,NA,48,79|21|0|0,,0,Higher Degree,Please indicate how likely you think the shown events will occur. Click on RUN to see!,English,5ee454ad40c72e152991826e,29036,male,8,1611798339230,,NA,NA,y,22.705416666666668,NA,r,21,NA,animation_slider
1562,,45,Thu Jan 28 2021 14:45:39 GMT+1300 (New Zealand Daylight Time),,54,,ry,certain,0,uncertain0,NA,none,NA,y,NA,NA,NA,NA,1611799701555,impossible,NA,48,45|19|36|0,,36,Higher Degree,Please indicate how likely you think the shown events will occur. Click on RUN to see!,English,5ee454ad40c72e152991826e,27483,male,9,1611798339230,,NA,NA,y,22.705416666666668,NA,r,19,NA,animation_slider
1562,,0,Thu Jan 28 2021 14:45:39 GMT+1300 (New Zealand Daylight Time),,54,,ry,certain,18,ind0,NA,none,NA,r,NA,NA,NA,NA,1611799701555,impossible,NA,48,0|58|24|18,,24,Higher Degree,Please indicate how likely you think the shown events will occur. Click on RUN to see!,English,5ee454ad40c72e152991826e,28054,male,10,1611798339230,,NA,NA,y,22.705416666666668,NA,r,58,NA,animation_slider
1562,,28,Thu Jan 28 2021 14:45:39 GMT+1300 (New Zealand Daylight Time),,54,,ry,certain,16,ac2,NA,none,NA,ry,NA,NA,NA,NA,1611799701555,impossible,NA,48,28|56|0|16,,0,Higher Degree,Please indicate how likely you think the shown events will occur. Click on RUN to see!,English,5ee454ad40c72e152991826e,26796,male,11,1611798339230,,NA,NA,y,22.705416666666668,NA,r,56,NA,animation_slider
1562,,53,Thu Jan 28 2021 14:45:39 GMT+1300 (New Zealand Daylight Time),,54,,ry,certain,10,ac3,NA,none,NA,none,NA,NA,NA,NA,1611799701555,impossible,NA,48,53|0|37|10,,37,Higher Degree,Please indicate how likely you think the shown events will occur. Click on RUN to see!,English,5ee454ad40c72e152991826e,30046,male,12,1611798339230,,NA,NA,y,22.705416666666668,NA,r,0,NA,animation_slider
1562,,4,Thu Jan 28 2021 14:45:39 GMT+1300 (New Zealand Daylight Time),,54,,ry,certain,45,ind1,NA,none,NA,ry,NA,NA,NA,NA,1611799701555,impossible,NA,48,4|35|16|45,,16,Higher Degree,Please indicate how likely you think the shown events will occur. Click on RUN to see!,English,5ee454ad40c72e152991826e,28101,male,13,1611798339230,,NA,NA,y,22.705416666666668,NA,r,35,NA,animation_slider
1562,,48,Thu Jan 28 2021 14:45:39 GMT+1300 (New Zealand Daylight Time),,54,,ry,certain,14,uncertain2,NA,none,NA,r,NA,NA,NA,NA,1611799701555,impossible,NA,48,48|13|26|14,,26,Higher Degree,Please indicate how likely you think the shown events will occur. Click on RUN to see!,English,5ee454ad40c72e152991826e,27122,male,14,1611798339230,,NA,NA,y,22.705416666666668,NA,r,13,NA,animation_slider
1562,,the blue block might fall,Thu Jan 28 2021 14:45:39 GMT+1300 (New Zealand Daylight Time),NA,54,group1,,,11,ind2,NA,,NA,,NA,NA,NA,NA,1611799701555,,NA,48,the blue block might fall|The blue block might fall and the green block will fall,,3,Higher Degree,TRY OUT EXAMPLE &mdash;Task 2: Please describe to a critical friend as adequately as possible <br/>what happens with the blue and the green block in the picture.,English,5ee454ad40c72e152991826e,66126,male,1,1611798339230,stimuli/img/train/ind2_test_colors.png,3,NA,,22.705416666666668,NA,,The blue block might fall and the green block will fall,NA,fridge_train
1562,,27,Thu Jan 28 2021 14:45:39 GMT+1300 (New Zealand Daylight Time),NA,54,group1,bg,certain,0,if2_hl,NA,none,NA,,NA,NA,NA,NA,1611799701555,impossible,NA,48,27|73|0|0,,0,Higher Degree,Task 1: Please indicate how likely you think the shown events will occur.,English,5ee454ad40c72e152991826e,24198,male,2,1611798339230,stimuli/img/group1/if2_hl.png,NA,NA,g,22.705416666666668,NA,b,73,NA,multiple_slider0
1562,,the green block does not fall but the blue block falls,Thu Jan 28 2021 14:45:39 GMT+1300 (New Zealand Daylight Time),NA,54,group1,,,1,if2_hl,NA,,NA,,NA,NA,NA,NA,1611799701555,,NA,48,the green block does not fall but the blue block falls|,,6,Higher Degree,Task 2: Please describe to a critical friend as adequately as possible <br/>what happens with the blue and the green block in the picture.,English,5ee454ad40c72e152991826e,22853,male,3,1611798339230,stimuli/img/group1/if2_hl.png,6,NA,,22.705416666666668,NA,,,NA,fridge_view0
1562,,66,Thu Jan 28 2021 14:45:39 GMT+1300 (New Zealand Daylight Time),NA,54,group1,bg,certain,6,if1_uh,NA,none,NA,,NA,NA,NA,NA,1611799701555,impossible,NA,48,66|28|0|6,,0,Higher Degree,Task 1: Please indicate how likely you think the shown events will occur.,English,5ee454ad40c72e152991826e,19982,male,4,1611798339230,stimuli/img/group1/if1_uh.png,NA,NA,g,22.705416666666668,NA,b,28,NA,multiple_slider1
1562,,both blocks fall,Thu Jan 28 2021 14:45:39 GMT+1300 (New Zealand Daylight Time),NA,54,group1,,,1,if1_uh,NA,,NA,,NA,NA,NA,NA,1611799701555,,NA,48,both blocks fall|,,2,Higher Degree,Task 2: Please describe to a critical friend as adequately as possible <br/>what happens with the blue and the green block in the picture.,English,5ee454ad40c72e152991826e,7030,male,5,1611798339230,stimuli/img/group1/if1_uh.png,2,NA,,22.705416666666668,NA,,,NA,fridge_view1
1562,,NA,Thu Jan 28 2021 14:45:39 GMT+1300 (New Zealand Daylight Time),NA,54,NA,NA,NA,NA,yellow-red,.,NA,grey,yellow,NA,blue,green,black,1611799701555,NA,The upper block is ,48,yellow,,NA,Higher Degree,What's the color of the <b>upper</b> block on the picture?,English,5ee454ad40c72e152991826e,5118,male,4,1611798339230,stimuli/img/color_vision/yellow_red.png,NA,yellow,NA,22.705416666666668,purple,NA,NA,red,color-vision0
1562,,52,Thu Jan 28 2021 14:45:39 GMT+1300 (New Zealand Daylight Time),NA,54,group1,bg,certain,5,independent_uh,NA,none,NA,,NA,NA,NA,NA,1611799701555,impossible,NA,48,52|16|27|5,,27,Higher Degree,Task 1: Please indicate how likely you think the shown events will occur.,English,5ee454ad40c72e152991826e,21678,male,6,1611798339230,stimuli/img/group1/independent_uh.png,NA,NA,g,22.705416666666668,NA,b,16,NA,multiple_slider2
1562,,the green block falls and the blue block falls,Thu Jan 28 2021 14:45:39 GMT+1300 (New Zealand Daylight Time),NA,54,group1,,,1,independent_uh,NA,,NA,,NA,NA,NA,NA,1611799701555,,NA,48,the green block falls and the blue block falls|,,5,Higher Degree,Task 2: Please describe to a critical friend as adequately as possible <br/>what happens with the blue and the green block in the picture.,English,5ee454ad40c72e152991826e,21270,male,7,1611798339230,stimuli/img/group1/independent_uh.png,5,NA,,22.705416666666668,NA,,,NA,fridge_view2
1562,,57,Thu Jan 28 2021 14:45:39 GMT+1300 (New Zealand Daylight Time),NA,54,group2,bg,certain,7,if1_hh,NA,none,NA,,NA,NA,NA,NA,1611799701555,impossible,NA,48,57|11|25|7,,25,Higher Degree,Task 1: Please indicate how likely you think the shown events will occur.,English,5ee454ad40c72e152991826e,12991,male,8,1611798339230,stimuli/img/group2/if1_hh.png,NA,NA,g,22.705416666666668,NA,b,11,NA,multiple_slider3
1562,,both blocks fall,Thu Jan 28 2021 14:45:39 GMT+1300 (New Zealand Daylight Time),NA,54,group2,,,10,if1_hh,NA,,NA,,NA,NA,NA,NA,1611799701555,,NA,48,both blocks fall|Both the green and the blue blocks will fall. ,,2,Higher Degree,Task 2: Please describe to a critical friend as adequately as possible <br/>what happens with the blue and the green block in the picture.,English,5ee454ad40c72e152991826e,22805,male,9,1611798339230,stimuli/img/group2/if1_hh.png,2,NA,,22.705416666666668,NA,,Both the green and the blue blocks will fall. ,NA,fridge_view3
1562,,NA,Thu Jan 28 2021 14:45:39 GMT+1300 (New Zealand Daylight Time),NA,54,NA,NA,NA,NA,blue-green,.,NA,grey,blue,NA,blue,green,black,1611799701555,NA,The upper block is ,48,blue,,NA,Higher Degree,What's the color of the <b>upper</b> block on the picture?,English,5ee454ad40c72e152991826e,4262,male,5,1611798339230,stimuli/img/color_vision/blue_green.png,NA,yellow,NA,22.705416666666668,purple,NA,NA,red,color-vision1
1562,,61,Thu Jan 28 2021 14:45:39 GMT+1300 (New Zealand Daylight Time),NA,54,group2,bg,certain,0,independent_hh,NA,none,NA,,NA,NA,NA,NA,1611799701555,impossible,NA,48,61|32|7|0,,7,Higher Degree,Task 1: Please indicate how likely you think the shown events will occur.,English,5ee454ad40c72e152991826e,13934,male,10,1611798339230,stimuli/img/group2/independent_hh.png,NA,NA,g,22.705416666666668,NA,b,32,NA,multiple_slider4
1562,,the blue block falls but the green block does not,Thu Jan 28 2021 14:45:39 GMT+1300 (New Zealand Daylight Time),NA,54,group2,,,1,independent_hh,NA,,NA,,NA,NA,NA,NA,1611799701555,,NA,48,the blue block falls but the green block does not|,,5,Higher Degree,Task 2: Please describe to a critical friend as adequately as possible <br/>what happens with the blue and the green block in the picture.,English,5ee454ad40c72e152991826e,19957,male,11,1611798339230,stimuli/img/group2/independent_hh.png,5,NA,,22.705416666666668,NA,,,NA,fridge_view4
1562,,6,Thu Jan 28 2021 14:45:39 GMT+1300 (New Zealand Daylight Time),NA,54,group2,bg,certain,39,if2_ul,NA,none,NA,,NA,NA,NA,NA,1611799701555,impossible,NA,48,6|17|39|39,,39,Higher Degree,Task 1: Please indicate how likely you think the shown events will occur.,English,5ee454ad40c72e152991826e,27182,male,12,1611798339230,stimuli/img/group2/if2_ul.png,NA,NA,g,22.705416666666668,NA,b,17,NA,multiple_slider5
1562,,the green block might fall,Thu Jan 28 2021 14:45:39 GMT+1300 (New Zealand Daylight Time),NA,54,group2,,,1,if2_ul,NA,,NA,,NA,NA,NA,NA,1611799701555,,NA,48,the green block might fall|,,3,Higher Degree,Task 2: Please describe to a critical friend as adequately as possible <br/>what happens with the blue and the green block in the picture.,English,5ee454ad40c72e152991826e,9420,male,13,1611798339230,stimuli/img/group2/if2_ul.png,3,NA,,22.705416666666668,NA,,,NA,fridge_view5
1562,,NA,Thu Jan 28 2021 14:45:39 GMT+1300 (New Zealand Daylight Time),NA,54,NA,NA,NA,NA,green,.,NA,grey,green,NA,blue,green,black,1611799701555,NA,The block is ,48,green,,NA,Higher Degree,What's the color of the block on the picture?,English,5ee454ad40c72e152991826e,4424,male,6,1611798339230,stimuli/img/color_vision/green.png,NA,yellow,NA,22.705416666666668,purple,NA,NA,red,color-vision2
1562,,42,Thu Jan 28 2021 14:45:39 GMT+1300 (New Zealand Daylight Time),NA,54,group2,bg,certain,3,independent_hl,NA,none,NA,,NA,NA,NA,NA,1611799701555,impossible,NA,48,42|11|44|3,,44,Higher Degree,Task 1: Please indicate how likely you think the shown events will occur.,English,5ee454ad40c72e152991826e,14013,male,14,1611798339230,stimuli/img/group2/independent_hl.png,NA,NA,g,22.705416666666668,NA,b,11,NA,multiple_slider6
1562,,the green block falls but the blue block does not,Thu Jan 28 2021 14:45:39 GMT+1300 (New Zealand Daylight Time),NA,54,group2,,,1,independent_hl,NA,,NA,,NA,NA,NA,NA,1611799701555,,NA,48,the green block falls but the blue block does not|,,5,Higher Degree,Task 2: Please describe to a critical friend as adequately as possible <br/>what happens with the blue and the green block in the picture.,English,5ee454ad40c72e152991826e,13044,male,15,1611798339230,stimuli/img/group2/independent_hl.png,5,NA,,22.705416666666668,NA,,,NA,fridge_view6
1562,,18,Thu Jan 28 2021 14:45:39 GMT+1300 (New Zealand Daylight Time),NA,54,group2,bg,certain,68,if2_ll,NA,none,NA,,NA,NA,NA,NA,1611799701555,impossible,NA,48,18|0|14|68,,14,Higher Degree,Task 1: Please indicate how likely you think the shown events will occur.,English,5ee454ad40c72e152991826e,16542,male,16,1611798339230,stimuli/img/group2/if2_ll.png,NA,NA,g,22.705416666666668,NA,b,0,NA,multiple_slider7
1562,,neither block falls,Thu Jan 28 2021 14:45:39 GMT+1300 (New Zealand Daylight Time),NA,54,group2,,,1,if2_ll,NA,,NA,,NA,NA,NA,NA,1611799701555,,NA,48,neither block falls|,,2,Higher Degree,Task 2: Please describe to a critical friend as adequately as possible <br/>what happens with the blue and the green block in the picture.,English,5ee454ad40c72e152991826e,8301,male,17,1611798339230,stimuli/img/group2/if2_ll.png,2,NA,,22.705416666666668,NA,,,NA,fridge_view7
1562,,NA,Thu Jan 28 2021 14:45:39 GMT+1300 (New Zealand Daylight Time),NA,54,NA,NA,NA,NA,green-blue,.,NA,grey,green,NA,blue,green,black,1611799701555,NA,The upper block is ,48,green,,NA,Higher Degree,What's the color of the <b>upper</b> block on the picture?,English,5ee454ad40c72e152991826e,4190,male,7,1611798339230,stimuli/img/color_vision/green_blue.png,NA,yellow,NA,22.705416666666668,purple,NA,NA,red,color-vision3
1562,,54,Thu Jan 28 2021 14:45:39 GMT+1300 (New Zealand Daylight Time),NA,54,group1,bg,certain,12,if1_u-Lh,NA,none,NA,,NA,NA,NA,NA,1611799701555,impossible,NA,48,54|34|0|12,,0,Higher Degree,Task 1: Please indicate how likely you think the shown events will occur.,English,5ee454ad40c72e152991826e,13790,male,18,1611798339230,stimuli/img/group1/if1_u-Lh.png,NA,NA,g,22.705416666666668,NA,b,34,NA,multiple_slider8
1562,,the blue block falls but the green block does not,Thu Jan 28 2021 14:45:39 GMT+1300 (New Zealand Daylight Time),NA,54,group1,,,1,if1_u-Lh,NA,,NA,,NA,NA,NA,NA,1611799701555,,NA,48,the blue block falls but the green block does not|,,5,Higher Degree,Task 2: Please describe to a critical friend as adequately as possible <br/>what happens with the blue and the green block in the picture.,English,5ee454ad40c72e152991826e,10238,male,19,1611798339230,stimuli/img/group1/if1_u-Lh.png,5,NA,,22.705416666666668,NA,,,NA,fridge_view8
1562,,9,Thu Jan 28 2021 14:45:39 GMT+1300 (New Zealand Daylight Time),NA,54,group2,bg,certain,36,independent_ul,NA,none,NA,,NA,NA,NA,NA,1611799701555,impossible,NA,48,9|17|38|36,,38,Higher Degree,Task 1: Please indicate how likely you think the shown events will occur.,English,5ee454ad40c72e152991826e,14317,male,20,1611798339230,stimuli/img/group2/independent_ul.png,NA,NA,g,22.705416666666668,NA,b,17,NA,multiple_slider9
1562,,the green block might fall,Thu Jan 28 2021 14:45:39 GMT+1300 (New Zealand Daylight Time),NA,54,group2,,,1,independent_ul,NA,,NA,,NA,NA,NA,NA,1611799701555,,NA,48,the green block might fall|,,3,Higher Degree,Task 2: Please describe to a critical friend as adequately as possible <br/>what happens with the blue and the green block in the picture.,English,5ee454ad40c72e152991826e,14341,male,21,1611798339230,stimuli/img/group2/independent_ul.png,3,NA,,22.705416666666668,NA,,,NA,fridge_view9
1562,,NA,Thu Jan 28 2021 14:45:39 GMT+1300 (New Zealand Daylight Time),NA,54,NA,NA,NA,NA,blue,.,NA,grey,blue,NA,blue,green,black,1611799701555,NA,The block is ,48,blue,,NA,Higher Degree,What's the color of the block on the picture?,English,5ee454ad40c72e152991826e,4508,male,8,1611798339230,stimuli/img/color_vision/blue.png,NA,yellow,NA,22.705416666666668,purple,NA,NA,red,color-vision4
1562,,19,Thu Jan 28 2021 14:45:39 GMT+1300 (New Zealand Daylight Time),NA,54,group2,bg,certain,65,if1_lh,NA,none,NA,,NA,NA,NA,NA,1611799701555,impossible,NA,48,19|0|16|65,,16,Higher Degree,Task 1: Please indicate how likely you think the shown events will occur.,English,5ee454ad40c72e152991826e,20625,male,22,1611798339230,stimuli/img/group2/if1_lh.png,NA,NA,g,22.705416666666668,NA,b,0,NA,multiple_slider10
1562,,neither block falls,Thu Jan 28 2021 14:45:39 GMT+1300 (New Zealand Daylight Time),NA,54,group2,,,1,if1_lh,NA,,NA,,NA,NA,NA,NA,1611799701555,,NA,48,neither block falls|,,2,Higher Degree,Task 2: Please describe to a critical friend as adequately as possible <br/>what happens with the blue and the green block in the picture.,English,5ee454ad40c72e152991826e,4222,male,23,1611798339230,stimuli/img/group2/if1_lh.png,2,NA,,22.705416666666668,NA,,,NA,fridge_view10
1562,,61,Thu Jan 28 2021 14:45:39 GMT+1300 (New Zealand Daylight Time),NA,54,group2,bg,certain,24,if2_u-Ll,NA,none,NA,,NA,NA,NA,NA,1611799701555,impossible,NA,48,61|0|15|24,,15,Higher Degree,Task 1: Please indicate how likely you think the shown events will occur.,English,5ee454ad40c72e152991826e,20822,male,24,1611798339230,stimuli/img/group2/if2_u-Ll.png,NA,NA,g,22.705416666666668,NA,b,0,NA,multiple_slider11
1562,,the green block might fall,Thu Jan 28 2021 14:45:39 GMT+1300 (New Zealand Daylight Time),NA,54,group2,,,1,if2_u-Ll,NA,,NA,,NA,NA,NA,NA,1611799701555,,NA,48,the green block might fall|,,3,Higher Degree,Task 2: Please describe to a critical friend as adequately as possible <br/>what happens with the blue and the green block in the picture.,English,5ee454ad40c72e152991826e,6763,male,25,1611798339230,stimuli/img/group2/if2_u-Ll.png,3,NA,,22.705416666666668,NA,,,NA,fridge_view11
1562,,NA,Thu Jan 28 2021 14:45:39 GMT+1300 (New Zealand Daylight Time),NA,54,NA,NA,NA,NA,red-yellow,.,NA,grey,red,NA,blue,green,black,1611799701555,NA,The upper block is ,48,red,,NA,Higher Degree,What's the color of the <b>upper</b> block on the picture?,English,5ee454ad40c72e152991826e,4175,male,9,1611798339230,stimuli/img/color_vision/red_yellow.png,NA,yellow,NA,22.705416666666668,purple,NA,NA,red,color-vision5
1562,,6,Thu Jan 28 2021 14:45:39 GMT+1300 (New Zealand Daylight Time),NA,54,group1,bg,certain,74,independent_ll,NA,none,NA,,NA,NA,NA,NA,1611799701555,impossible,NA,48,6|0|20|74,,20,Higher Degree,Task 1: Please indicate how likely you think the shown events will occur.,English,5ee454ad40c72e152991826e,18935,male,26,1611798339230,stimuli/img/group1/independent_ll.png,NA,NA,g,22.705416666666668,NA,b,0,NA,multiple_slider12
1562,,neither block falls,Thu Jan 28 2021 14:45:39 GMT+1300 (New Zealand Daylight Time),NA,54,group1,,,1,independent_ll,NA,,NA,,NA,NA,NA,NA,1611799701555,,NA,48,neither block falls|,,2,Higher Degree,Task 2: Please describe to a critical friend as adequately as possible <br/>what happens with the blue and the green block in the picture.,English,5ee454ad40c72e152991826e,5077,male,27,1611798339230,stimuli/img/group1/independent_ll.png,2,NA,,22.705416666666668,NA,,,NA,fridge_view12
1561,,NA,Thu Jan 28 2021 14:18:07 GMT+1300 (New Zealand Daylight Time),NA,54,NA,NA,NA,NA,not-red-yellow,.,NA,both,ynr,NA,ynr,none,rny,1611798471687,NA,The icon represents the event that ,42,ynr,,NA,Graduated High School,What event does this icon represent?,English,5df009be35886f068d794ebd,6092,female,1,1611796687207,stimuli/img/icons/not-red-yellow.png,NA,NA,NA,29.741333333333333,NA,NA,NA,NA,attention_check
1561,,NA,Thu Jan 28 2021 14:18:07 GMT+1300 (New Zealand Daylight Time),NA,54,NA,NA,NA,NA,not-yellow-red,.,NA,none,rny,NA,both,ynr,rny,1611798471687,NA,The icon represents the event that ,42,rny,,NA,Graduated High School,What event does this icon represent?,English,5df009be35886f068d794ebd,3948,female,2,1611796687207,stimuli/img/icons/red-not-yellow.png,NA,NA,NA,29.741333333333333,NA,NA,NA,NA,attention_check
1561,,NA,Thu Jan 28 2021 14:18:07 GMT+1300 (New Zealand Daylight Time),NA,54,NA,NA,NA,NA,red-yellow,.,NA,both,both,NA,rny,ynr,none,1611798471687,NA,The icon represents the event that ,42,both,,NA,Graduated High School,What event does this icon represent?,English,5df009be35886f068d794ebd,4477,female,3,1611796687207,stimuli/img/icons/red-yellow.png,NA,NA,NA,29.741333333333333,NA,NA,NA,NA,attention_check
1561,The sliders represent the beliefs of a person who <br/><b>thinks</b> that <b>red falls</b> and that <b>yellow</b> is <b>more likely to fall than not to fall</b>.,NA,Thu Jan 28 2021 14:18:07 GMT+1300 (New Zealand Daylight Time),NA,54,NA,NA,NA,NA,sc_yes6_0,NA,NA,NA,yes,</br>The sliders represent the beliefs of a person who <br/><b>thinks</b> that <b>red falls</b> and that <b>yellow</b> is <b>more likely to fall than not to fall</b>.,no,NA,yes,1611798471687,NA,NA,42,yes,,NA,Graduated High School,Please click on the button with the correct answer.,English,5df009be35886f068d794ebd,34181,female,1,1611796687207,stimuli/img/slider-choices/sc_yes6_0.png,NA,NA,NA,29.741333333333333,NA,NA,NA,NA,slider_choice_training
1561,The sliders represent the beliefs of a person who <br/><b>is very confident</b> that <b>yellow falls</b> but is <b>uncertain whether or not red falls</b>.</b>,NA,Thu Jan 28 2021 14:18:07 GMT+1300 (New Zealand Daylight Time),NA,54,NA,NA,NA,NA,no_sc_yes4_0,NA,NA,NA,no,</br>The sliders represent the beliefs of a person who <br/><b>is very confident</b> that <b><i>RED</i> falls</b> but is <b>uncertain whether or not <i>YELLOW</i> falls</b>.,no,NA,yes,1611798471687,NA,NA,42,no,,NA,Graduated High School,Please click on the button with the correct answer.,English,5df009be35886f068d794ebd,10436,female,2,1611796687207,stimuli/img/slider-choices/sc_yes4_0.png,NA,NA,NA,29.741333333333333,NA,NA,NA,NA,slider_choice_training
1561,The sliders represent the beliefs of a person who <br/><b>thinks</b> that <b>red falls</b> but <b>probably not yellow</b>.,NA,Thu Jan 28 2021 14:18:07 GMT+1300 (New Zealand Daylight Time),NA,54,NA,NA,NA,NA,sc_yes5_0,NA,NA,NA,yes,</br>The sliders represent the beliefs of a person who <br/><b>thinks</b> that <b>red falls</b> but <b>probably not yellow</b>.,no,NA,yes,1611798471687,NA,NA,42,yes,,NA,Graduated High School,Please click on the button with the correct answer.,English,5df009be35886f068d794ebd,21422,female,3,1611796687207,stimuli/img/slider-choices/sc_yes5_0.png,NA,NA,NA,29.741333333333333,NA,NA,NA,NA,slider_choice_training
1561,The sliders represent the beliefs of a person who <br/><b>thinks</b> that <b>yellow falls</b> but is <b>uncertain whether or not red falls</b>.,NA,Thu Jan 28 2021 14:18:07 GMT+1300 (New Zealand Daylight Time),NA,54,NA,NA,NA,NA,sc_yes4_1,NA,NA,NA,yes,</br>The sliders represent the beliefs of a person who <br/><b>thinks</b> that <b>yellow falls</b> but is <b>uncertain whether or not red falls</b>.,no,NA,yes,1611798471687,NA,NA,42,yes,,NA,Graduated High School,Please click on the button with the correct answer.,English,5df009be35886f068d794ebd,14610,female,4,1611796687207,stimuli/img/slider-choices/sc_yes4_1.png,NA,NA,NA,29.741333333333333,NA,NA,NA,NA,slider_choice_training
1561,The sliders represent the beliefs of a person who <br/>is <b>pretty certain</b> that the <b>red block falls</b> but <b>not the yellow</b>.</b>,NA,Thu Jan 28 2021 14:18:07 GMT+1300 (New Zealand Daylight Time),NA,54,NA,NA,NA,NA,no_sc_yes3_1,NA,NA,NA,no,</br>The sliders represent the beliefs of a person who <br/>is <b>pretty certain</b> that the <b><i>YELLOW</i> block falls</b> but <b>not the <i>RED</i></b>.,no,NA,yes,1611798471687,NA,NA,42,no,,NA,Graduated High School,Please click on the button with the correct answer.,English,5df009be35886f068d794ebd,6894,female,5,1611796687207,stimuli/img/slider-choices/sc_yes3_1.png,NA,NA,NA,29.741333333333333,NA,NA,NA,NA,slider_choice_training
1561,The sliders represent the beliefs of a person who <br/>is <b>pretty certain</b> that the <b>red block falls</b> but <b>not the yellow</b>.,NA,Thu Jan 28 2021 14:18:07 GMT+1300 (New Zealand Daylight Time),NA,54,NA,NA,NA,NA,sc_yes3_0,NA,NA,NA,yes,</br>The sliders represent the beliefs of a person who <br/>is <b>pretty certain</b> that the <b>red block falls</b> but <b>not the yellow</b>.,no,NA,yes,1611798471687,NA,NA,42,yes,,NA,Graduated High School,Please click on the button with the correct answer.,English,5df009be35886f068d794ebd,6464,female,6,1611796687207,stimuli/img/slider-choices/sc_yes3_0.png,NA,NA,NA,29.741333333333333,NA,NA,NA,NA,slider_choice_training
1561,The sliders represent the beliefs of a person who <br/><b>thinks</b> that <b>either both</b> or <b>none</b> of the two blocks fall <br/>with a <b>tendency</b> towards the event that <b>both blocks fall</b>.,NA,Thu Jan 28 2021 14:18:07 GMT+1300 (New Zealand Daylight Time),NA,54,NA,NA,NA,NA,sc_yes2_0,NA,NA,NA,yes,</br>The sliders represent the beliefs of a person who <br/><b>thinks</b> that <b>either both</b> or <b>none</b> of the two blocks fall <br/>with a <b>tendency</b> towards the event that <b>both blocks fall</b>.,no,NA,yes,1611798471687,NA,NA,42,yes,,NA,Graduated High School,Please click on the button with the correct answer.,English,5df009be35886f068d794ebd,14387,female,7,1611796687207,stimuli/img/slider-choices/sc_yes2_0.png,NA,NA,NA,29.741333333333333,NA,NA,NA,NA,slider_choice_training
1561,The sliders represent the beliefs of a person who <br/><b>is very confident</b> that <b>either both</b> or <b>none</b> of the two blocks fall <br/>with a <b>tendency</b> towards the event that <b>both blocks fall</b>.</b>,NA,Thu Jan 28 2021 14:18:07 GMT+1300 (New Zealand Daylight Time),NA,54,NA,NA,NA,NA,no_sc_yes2_1-not0,NA,NA,NA,no,</br>The sliders represent the beliefs of a person who <br/><b>is very confident</b> that <b>either both</b> or <b>none</b> of the two blocks fall <br/>with a <b>tendency</b> towards the event that <b>no block falls</b>.,no,NA,yes,1611798471687,NA,NA,42,yes,,NA,Graduated High School,Please click on the button with the correct answer.,English,5df009be35886f068d794ebd,9722,female,8,1611796687207,stimuli/img/slider-choices/sc_yes2_1-not0.png,NA,NA,NA,29.741333333333333,NA,NA,NA,NA,slider_choice_training
1561,"The sliders represent the beliefs of a person who <br/>is <b>completely uncertain</b> whether the blocks fall, that is the person has <b>no tendency</b> towards any of the four events.",NA,Thu Jan 28 2021 14:18:07 GMT+1300 (New Zealand Daylight Time),NA,54,NA,NA,NA,NA,sc_yes0,NA,NA,NA,yes,"</br>The sliders represent the beliefs of a person who <br/>is <b>completely uncertain</b> whether the blocks fall, that is the person has <b>no tendency</b> towards any of the four events.",no,NA,yes,1611798471687,NA,NA,42,yes,,NA,Graduated High School,Please click on the button with the correct answer.,English,5df009be35886f068d794ebd,12474,female,9,1611796687207,stimuli/img/slider-choices/sc_yes0.png,NA,NA,NA,29.741333333333333,NA,NA,NA,NA,slider_choice_training
1561,The sliders represent the beliefs of a person who <br/><b>thinks</b> that <b>either both blocks</b> or <b>none</b> of the two blocks fall.,NA,Thu Jan 28 2021 14:18:07 GMT+1300 (New Zealand Daylight Time),NA,54,NA,NA,NA,NA,sc_yes1,NA,NA,NA,yes,</br>The sliders represent the beliefs of a person who <br/><b>thinks</b> that <b>either both blocks</b> or <b>none</b> of the two blocks fall.,no,NA,yes,1611798471687,NA,NA,42,yes,,NA,Graduated High School,Please click on the button with the correct answer.,English,5df009be35886f068d794ebd,8567,female,10,1611796687207,stimuli/img/slider-choices/sc_yes1.png,NA,NA,NA,29.741333333333333,NA,NA,NA,NA,slider_choice_training
1561,,100,Thu Jan 28 2021 14:18:07 GMT+1300 (New Zealand Daylight Time),,54,,ry,certain,0,uncertain3,NA,none,NA,y,NA,NA,NA,NA,1611798471687,impossible,NA,42,100|0|0|0,,0,Graduated High School,Please indicate how likely you think the shown events will occur. Click on RUN to see!,English,5df009be35886f068d794ebd,66775,female,1,1611796687207,,NA,NA,y,29.741333333333333,NA,r,0,NA,animation_slider
1561,,54,Thu Jan 28 2021 14:18:07 GMT+1300 (New Zealand Daylight Time),,54,,ry,certain,0,uncertain1,NA,none,NA,r,NA,NA,NA,NA,1611798471687,impossible,NA,42,54|32|14|0,,14,Graduated High School,Please indicate how likely you think the shown events will occur. Click on RUN to see!,English,5df009be35886f068d794ebd,62707,female,2,1611796687207,,NA,NA,y,29.741333333333333,NA,r,32,NA,animation_slider
1561,,46,Thu Jan 28 2021 14:18:07 GMT+1300 (New Zealand Daylight Time),,54,,ry,certain,3,distance1,NA,none,NA,y,NA,NA,NA,NA,1611798471687,impossible,NA,42,46|26|25|3,,25,Graduated High School,Please indicate how likely you think the shown events will occur. Click on RUN to see!,English,5df009be35886f068d794ebd,40110,female,3,1611796687207,,NA,NA,y,29.741333333333333,NA,r,26,NA,animation_slider
1561,,14,Thu Jan 28 2021 14:18:07 GMT+1300 (New Zealand Daylight Time),,54,,ry,certain,35,distance0,NA,none,NA,r,NA,NA,NA,NA,1611798471687,impossible,NA,42,14|24|27|35,,27,Graduated High School,Please indicate how likely you think the shown events will occur. Click on RUN to see!,English,5df009be35886f068d794ebd,47637,female,4,1611796687207,,NA,NA,y,29.741333333333333,NA,r,24,NA,animation_slider
1561,,19,Thu Jan 28 2021 14:18:07 GMT+1300 (New Zealand Daylight Time),,54,,ry,certain,44,ssw1,NA,none,NA,none,NA,NA,NA,NA,1611798471687,impossible,NA,42,19|19|19|44,,19,Graduated High School,Please indicate how likely you think the shown events will occur. Click on RUN to see!,English,5df009be35886f068d794ebd,48076,female,5,1611796687207,,NA,NA,y,29.741333333333333,NA,r,19,NA,animation_slider
